[2024-06-13 12:18:02.844126] [0x0000007f98d14010] [LogDataTag] [0x00002ff1] [1] Initial timestamp, Current time [s], User-defined position x [m], User-defined position y [m], User-defined position z [m], User-defined velocity x [m/s], User-defined velocity y [m/s], User-defined velocity z [m/s], User-defined acceleration x [m/s^2], User-defined acceleration y [m/s^2], User-defined acceleration z [m/s^2], User-defined yaw [rad], User-defined yaw_dot [rad/s], User-defined yaw_dot_dot [rad/s^2], Odometry time [s], Position x [m], Position y [m], Position z [m], Quaternion q0 [-], Quaternion q1 [-], Quaternion q2 [-], Quaternion q3 [-], Velocity x [m/s], Velocity y [m/s], Velocity z [m/s], Angular velocity x [rad/s], Angular velocity y [rad/s], Angular velocity z [rad/s], Roll [rad], Pitch [rad], Yaw [rad], Algorithm execution time [us], Mu translational raw x [N], Mu translational raw y [N], Mu translational raw z [N], Mu translational x [N], Mu translational y [N], Mu translational z [N], U control input U1 [N], U control input U2 [Nm], U control input U3 [Nm], U control input U4 [Nm], Roll reference [rad], Pitch reference [rad], Roll_dot reference [rad/s], Pitch_dot reference [rad/s], Roll_dot_dot reference [rad/s^2], Pitch_dot_dot reference [rad/s^2], Roll_dot [rad/s], Pitch_dot [rad/s], Yaw_dot [rad/s], Thrust motors QUADCOPTER T1 [N], Thrust motors QUADCOPTER T2 [N], Thrust motors QUADCOPTER T3 [N], Thrust motors QUADCOPTER T4 [N], Thrust motors normalized QUADCOPTER T1 [-], Thrust motors normalized QUADCOPTER T2 [-], Thrust motors normalized QUADCOPTER T3 [-], Thrust motors normalized QUADCOPTER T4 [-], Thrust motors X8COPTER T1 [N], Thrust motors X8COPTER T2 [N], Thrust motors X8COPTER T3 [N], Thrust motors X8COPTER T4 [N], Thrust motors X8COPTER T5 [N], Thrust motors X8COPTER T6 [N], Thrust motors X8COPTER T7 [N], Thrust motors X8COPTER T8 [N], Thrust motors normalized X8COPTER T1 [-], Thrust motors normalized X8COPTER T2 [-], Thrust motors normalized X8COPTER T3 [-], Thrust motors normalized X8COPTER T4 [-], Thrust motors normalized X8COPTER T5 [-], Thrust motors normalized X8COPTER T6 [-], Thrust motors normalized X8COPTER T7 [-], Thrust motors normalized X8COPTER T8 [-], Roll error [rad], Pitch error [rad], Yaw error [rad], Outer loop Proportional term x [-], Outer loop Proportional term y [-], Outer loop Proportional term z [-], Outer loop Integral term x [-], Outer loop Integral term y [-], Outer loop Integral term z [-], Outer loop Derivative term x [-], Outer loop Derivative term y [-], Outer loop Derivative term z [-], Outer loop Dynamic Inversion term x [-], Outer loop Dynamic Inversion term y [-], Outer loop Dynamic Inversion term z [-], Inner loop Proportional term x [-], Inner loop Proportional term y [-], Inner loop Proportional term z [-], Inner loop Integral term x [-], Inner loop Integral term y [-], Inner loop Integral term z [-], Inner loop Derivative term x [-], Inner loop Derivative term y [-], Inner loop Derivative term z [-], Inner loop Dynamic Inversion term x [-], Inner loop Dynamic Inversion term y [-], Inner loop Dynamic Inversion term z [-], 
[2024-06-13 12:18:02.904411] [0x0000007f915b79a0] [LogDataTag] [0x00002ff1] [3] 1718295482836884, 0.066912, 0, 0, 0, 0, 0, 0, 0, 0, 0, 0, 0, 0, 1.8445e+13, 0, 0, 0, 1, 0, 0, 0, 0, 0, 0, 0, 0, 0, 0, 0, 0, 0, 0, 0, 0, 0, 0, 0, 0, 0, 0, 0, 0, 0, 0, 0, 0, 0, 0, 0, 0, 0, 0, 0, 0, 0, 0, 0, 0, 0, 0, 0, 0, 0, 0, 0, 0, 0, 0, 0, 0, 0, 0, 0, 0, 0, 0, 0, 0, 0, 0, 0, 0, 0, 0, 0, 0, 0, 0, 0, 0, 0, 0, 0, 0, 0, 0, 0, 0, 0, 0, 0, 
[2024-06-13 12:18:02.906171] [0x0000007f91db89a0] [LogDataTag] [0x00002ff1] [5] 1718295482836884, 0.06878, 0, 0, 0, 0, 0, 0, 0, 0, 0, 0, 0, 0, 1.8445e+13, 0.07993, -0.192984, -0.316034, 0.99897, -0.00526658, -0.00375531, -0.044911, -0.00127155, 0.000139714, -0.00107865, 0.00234412, 0.00279242, 0.00185263, -0.0101855, -0.00797602, -0.0898135, 0, 0, 0, 0, 0, 0, 0, 0, 0, 0, 0, 0, 0, 0, 0, 0, 0, 0, 0, 0, 0, 0, 0, 0, 0, 0, 0, 0, 0, 0, 0, 0, 0, 0, 0, 0, 0, 0, 0, 0, 0, 0, 0, 0, 0, 0, 0, 0, 0, 0, 0, 0, 0, 0, 0, 0, 0, 0, 0, 0, 0, 0, 0, 0, 0, 0, 0, 0, 0, 0, 0, 
[2024-06-13 12:18:02.916221] [0x0000007f925b99a0] [LogDataTag] [0x00002ff1] [10] 1718295482836884, 0.078841, 0, 0, 0, 0, 0, 0, 0, 0, 0, 0, 0, 0, 1.8445e+13, 0.079945, -0.192992, -0.316002, 0.998971, -0.00526485, -0.00375896, -0.0449001, -0.0012726, 0.000233036, -0.00111963, 0.000379485, -0.000622407, 0.00209167, -0.0101818, -0.00798305, -0.0897916, 0, 0, 0, 0, 0, 0, 0, 0, 0, 0, 0, 0, 0, 0, 0, 0, 0, 0, 0, 0, 0, 0, 0, 0, 0, 0, 0, 0, 0, 0, 0, 0, 0, 0, 0, 0, 0, 0, 0, 0, 0, 0, 0, 0, 0, 0, 0, 0, 0, 0, 0, 0, 0, 0, 0, 0, 0, 0, 0, 0, 0, 0, 0, 0, 0, 0, 0, 0, 0, 0, 0, 
[2024-06-13 12:18:02.926627] [0x0000007f915b79a0] [LogDataTag] [0x00002ff1] [14] 1718295482836884, 0.088893, 0, 0, 0, 0, 0, 0, 0, 0, 0, 0, 0, 0, 1.8445e+13, 0.0799561, -0.193, -0.315994, 0.998971, -0.00526433, -0.00376071, -0.0448995, -0.00135714, 0.000261179, -0.000735738, 0.00617068, 0.0050253, 0.00508085, -0.0101806, -0.00798649, -0.0897904, 0, 0, 0, 0, 0, 0, 0, 0, 0, 0, 0, 0, 0, 0, 0, 0, 0, 0, 0, 0, 0, 0, 0, 0, 0, 0, 0, 0, 0, 0, 0, 0, 0, 0, 0, 0, 0, 0, 0, 0, 0, 0, 0, 0, 0, 0, 0, 0, 0, 0, 0, 0, 0, 0, 0, 0, 0, 0, 0, 0, 0, 0, 0, 0, 0, 0, 0, 0, 0, 0, 0, 
[2024-06-13 12:18:02.936540] [0x0000007f915b79a0] [LogDataTag] [0x00002ff1] [19] 1718295482836884, 0.0989, 0, 0, 0, 0, 0, 0, 0, 0, 0, 0, 0, 0, 1.8445e+13, 0.0799561, -0.193, -0.315994, 0.998971, -0.00526433, -0.00376071, -0.0448995, -0.00135714, 0.000261179, -0.000735738, 0.00617068, 0.0050253, 0.00508085, -0.0101806, -0.00798649, -0.0897904, 0, 0, 0, 0, 0, 0, 0, 0, 0, 0, 0, 0, 0, 0, 0, 0, 0, 0, 0, 0, 0, 0, 0, 0, 0, 0, 0, 0, 0, 0, 0, 0, 0, 0, 0, 0, 0, 0, 0, 0, 0, 0, 0, 0, 0, 0, 0, 0, 0, 0, 0, 0, 0, 0, 0, 0, 0, 0, 0, 0, 0, 0, 0, 0, 0, 0, 0, 0, 0, 0, 0, 
[2024-06-13 12:18:02.946252] [0x0000007f98d14010] [LogDataTag] [0x00002ff1] [23] 1718295482836884, 0.108899, 0, 0, 0, 0, 0, 0, 0, 0, 0, 0, 0, 0, 1.8445e+13, 0.0799799, -0.193015, -0.315971, 0.99897, -0.0052733, -0.00374253, -0.0449192, -0.0012305, 0.000328215, -0.000786485, 0.00263135, 0.00185361, 0.00644181, -0.0102, -0.00795117, -0.0898301, 0, 0, 0, 0, 0, 0, 0, 0, 0, 0, 0, 0, 0, 0, 0, 0, 0, 0, 0, 0, 0, 0, 0, 0, 0, 0, 0, 0, 0, 0, 0, 0, 0, 0, 0, 0, 0, 0, 0, 0, 0, 0, 0, 0, 0, 0, 0, 0, 0, 0, 0, 0, 0, 0, 0, 0, 0, 0, 0, 0, 0, 0, 0, 0, 0, 0, 0, 0, 0, 0, 0, 
[2024-06-13 12:18:02.956036] [0x0000007f91db89a0] [LogDataTag] [0x00002ff1] [28] 1718295482836884, 0.118758, 0, 0, 0, 0, 0, 0, 0, 0, 0, 0, 0, 0, 1.8445e+13, 0.0799857, -0.19302, -0.315965, 0.998971, -0.00527126, -0.00374815, -0.0448962, -0.00119894, 0.000215626, -0.000598406, -0.00318896, 0.00475257, 0.00915389, -0.0101956, -0.00796199, -0.0897839, 0, 0, 0, 0, 0, 0, 0, 0, 0, 0, 0, 0, 0, 0, 0, 0, 0, 0, 0, 0, 0, 0, 0, 0, 0, 0, 0, 0, 0, 0, 0, 0, 0, 0, 0, 0, 0, 0, 0, 0, 0, 0, 0, 0, 0, 0, 0, 0, 0, 0, 0, 0, 0, 0, 0, 0, 0, 0, 0, 0, 0, 0, 0, 0, 0, 0, 0, 0, 0, 0, 0, 
[2024-06-13 12:18:02.966288] [0x0000007f91db89a0] [LogDataTag] [0x00002ff1] [32] 1718295482836884, 0.128922, 0, 0, 0, 0, 0, 0, 0, 0, 0, 0, 0, 0, 1.8445e+13, 0.0799857, -0.19302, -0.315965, 0.998971, -0.00527126, -0.00374815, -0.0448962, -0.00119894, 0.000215626, -0.000598406, -0.00318896, 0.00475257, 0.00915389, -0.0101956, -0.00796199, -0.0897839, 0, 0, 0, 0, 0, 0, 0, 0, 0, 0, 0, 0, 0, 0, 0, 0, 0, 0, 0, 0, 0, 0, 0, 0, 0, 0, 0, 0, 0, 0, 0, 0, 0, 0, 0, 0, 0, 0, 0, 0, 0, 0, 0, 0, 0, 0, 0, 0, 0, 0, 0, 0, 0, 0, 0, 0, 0, 0, 0, 0, 0, 0, 0, 0, 0, 0, 0, 0, 0, 0, 0, 
[2024-06-13 12:18:02.976195] [0x0000007f98d14010] [LogDataTag] [0x00002ff1] [37] 1718295482836884, 0.138849, 0, 0, 0, 0, 0, 0, 0, 0, 0, 0, 0, 0, 1.8445e+13, 0.0799953, -0.193032, -0.31586, 0.998969, -0.00526859, -0.00377859, -0.0449269, -0.00137323, 0.000205593, -0.000583509, -0.00151895, -0.00214553, -0.00478194, -0.0101873, -0.00802288, -0.089845, 0, 0, 0, 0, 0, 0, 0, 0, 0, 0, 0, 0, 0, 0, 0, 0, 0, 0, 0, 0, 0, 0, 0, 0, 0, 0, 0, 0, 0, 0, 0, 0, 0, 0, 0, 0, 0, 0, 0, 0, 0, 0, 0, 0, 0, 0, 0, 0, 0, 0, 0, 0, 0, 0, 0, 0, 0, 0, 0, 0, 0, 0, 0, 0, 0, 0, 0, 0, 0, 0, 0, 
[2024-06-13 12:18:02.986249] [0x0000007f98d14010] [LogDataTag] [0x00002ff1] [41] 1718295482836884, 0.148889, 0, 0, 0, 0, 0, 0, 0, 0, 0, 0, 0, 0, 1.8445e+13, 0.0799953, -0.193032, -0.31586, 0.998969, -0.00526859, -0.00377859, -0.0449269, -0.00137323, 0.000205593, -0.000583509, -0.00151895, -0.00214553, -0.00478194, -0.0101873, -0.00802288, -0.089845, 0, 0, 0, 0, 0, 0, 0, 0, 0, 0, 0, 0, 0, 0, 0, 0, 0, 0, 0, 0, 0, 0, 0, 0, 0, 0, 0, 0, 0, 0, 0, 0, 0, 0, 0, 0, 0, 0, 0, 0, 0, 0, 0, 0, 0, 0, 0, 0, 0, 0, 0, 0, 0, 0, 0, 0, 0, 0, 0, 0, 0, 0, 0, 0, 0, 0, 0, 0, 0, 0, 0, 
[2024-06-13 12:18:02.996311] [0x0000007f915b79a0] [LogDataTag] [0x00002ff1] [45] 1718295482836884, 0.158887, 0, 0, 0, 0, 0, 0, 0, 0, 0, 0, 0, 0, 1.8445e+13, 0.0799975, -0.193042, -0.315693, 0.99897, -0.00524593, -0.00379521, -0.0449094, -0.00135615, 0.000148208, -0.000510679, 0.00413598, 2.19092e-05, 0.00654196, -0.0101407, -0.00805388, -0.0898101, 0, 0, 0, 0, 0, 0, 0, 0, 0, 0, 0, 0, 0, 0, 0, 0, 0, 0, 0, 0, 0, 0, 0, 0, 0, 0, 0, 0, 0, 0, 0, 0, 0, 0, 0, 0, 0, 0, 0, 0, 0, 0, 0, 0, 0, 0, 0, 0, 0, 0, 0, 0, 0, 0, 0, 0, 0, 0, 0, 0, 0, 0, 0, 0, 0, 0, 0, 0, 0, 0, 0, 
[2024-06-13 12:18:03.006612] [0x0000007f98d14010] [LogDataTag] [0x00002ff1] [50] 1718295482836884, 0.169167, 0, 0, 0, 0, 0, 0, 0, 0, 0, 0, 0, 0, 1.8445e+13, 0.0799964, -0.193046, -0.315619, 0.99897, -0.00525245, -0.00378303, -0.0449091, -0.00140689, 0.000201634, -0.00041585, -0.00225808, 0.000874067, 0.00494611, -0.0101548, -0.00803012, -0.0898096, 0, 0, 0, 0, 0, 0, 0, 0, 0, 0, 0, 0, 0, 0, 0, 0, 0, 0, 0, 0, 0, 0, 0, 0, 0, 0, 0, 0, 0, 0, 0, 0, 0, 0, 0, 0, 0, 0, 0, 0, 0, 0, 0, 0, 0, 0, 0, 0, 0, 0, 0, 0, 0, 0, 0, 0, 0, 0, 0, 0, 0, 0, 0, 0, 0, 0, 0, 0, 0, 0, 0, 
[2024-06-13 12:18:03.016403] [0x0000007f98d14010] [LogDataTag] [0x00002ff1] [54] 1718295482836884, 0.179009, 0, 0, 0, 0, 0, 0, 0, 0, 0, 0, 0, 0, 1.8445e+13, 0.0799964, -0.193046, -0.315619, 0.99897, -0.00525245, -0.00378303, -0.0449091, -0.00140689, 0.000201634, -0.00041585, -0.00225808, 0.000874067, 0.00494611, -0.0101548, -0.00803012, -0.0898096, 0, 0, 0, 0, 0, 0, 0, 0, 0, 0, 0, 0, 0, 0, 0, 0, 0, 0, 0, 0, 0, 0, 0, 0, 0, 0, 0, 0, 0, 0, 0, 0, 0, 0, 0, 0, 0, 0, 0, 0, 0, 0, 0, 0, 0, 0, 0, 0, 0, 0, 0, 0, 0, 0, 0, 0, 0, 0, 0, 0, 0, 0, 0, 0, 0, 0, 0, 0, 0, 0, 0, 
[2024-06-13 12:18:03.026241] [0x0000007f91db89a0] [LogDataTag] [0x00002ff1] [59] 1718295482836884, 0.188874, 0, 0, 0, 0, 0, 0, 0, 0, 0, 0, 0, 0, 1.8445e+13, 0.0799901, -0.193059, -0.315469, 0.99897, -0.0052604, -0.00376501, -0.0449167, -0.00128671, 0.000223125, -0.000140208, -0.00196388, -0.000431698, -0.000521429, -0.0101722, -0.0079949, -0.0898249, 0, 0, 0, 0, 0, 0, 0, 0, 0, 0, 0, 0, 0, 0, 0, 0, 0, 0, 0, 0, 0, 0, 0, 0, 0, 0, 0, 0, 0, 0, 0, 0, 0, 0, 0, 0, 0, 0, 0, 0, 0, 0, 0, 0, 0, 0, 0, 0, 0, 0, 0, 0, 0, 0, 0, 0, 0, 0, 0, 0, 0, 0, 0, 0, 0, 0, 0, 0, 0, 0, 0, 
[2024-06-13 12:18:03.036270] [0x0000007f91db89a0] [LogDataTag] [0x00002ff1] [63] 1718295482836884, 0.198952, 0, 0, 0, 0, 0, 0, 0, 0, 0, 0, 0, 0, 1.8445e+13, 0.0799864, -0.193062, -0.315452, 0.99897, -0.00524822, -0.00377002, -0.044914, -0.00144636, 0.000229607, 9.30111e-05, 0.00195688, -0.00141128, 0.00227021, -0.0101475, -0.0080038, -0.0898196, 0, 0, 0, 0, 0, 0, 0, 0, 0, 0, 0, 0, 0, 0, 0, 0, 0, 0, 0, 0, 0, 0, 0, 0, 0, 0, 0, 0, 0, 0, 0, 0, 0, 0, 0, 0, 0, 0, 0, 0, 0, 0, 0, 0, 0, 0, 0, 0, 0, 0, 0, 0, 0, 0, 0, 0, 0, 0, 0, 0, 0, 0, 0, 0, 0, 0, 0, 0, 0, 0, 0, 
[2024-06-13 12:18:03.046248] [0x0000007f915b79a0] [LogDataTag] [0x00002ff1] [68] 1718295482836884, 0.208919, 0, 0, 0, 0, 0, 0, 0, 0, 0, 0, 0, 0, 1.8445e+13, 0.0799806, -0.193065, -0.315435, 0.998971, -0.00523403, -0.00375303, -0.0449012, -0.00155373, 0.000205676, 0.000139699, 0.00333184, 0.00195584, 0.00452746, -0.0101207, -0.00796846, -0.0897941, 0, 0, 0, 0, 0, 0, 0, 0, 0, 0, 0, 0, 0, 0, 0, 0, 0, 0, 0, 0, 0, 0, 0, 0, 0, 0, 0, 0, 0, 0, 0, 0, 0, 0, 0, 0, 0, 0, 0, 0, 0, 0, 0, 0, 0, 0, 0, 0, 0, 0, 0, 0, 0, 0, 0, 0, 0, 0, 0, 0, 0, 0, 0, 0, 0, 0, 0, 0, 0, 0, 0, 
[2024-06-13 12:18:03.056250] [0x0000007f915b79a0] [LogDataTag] [0x00002ff1] [72] 1718295482836884, 0.218886, 0, 0, 0, 0, 0, 0, 0, 0, 0, 0, 0, 0, 1.8445e+13, 0.0799806, -0.193065, -0.315435, 0.998971, -0.00523403, -0.00375303, -0.0449012, -0.00155373, 0.000205676, 0.000139699, 0.00333184, 0.00195584, 0.00452746, -0.0101207, -0.00796846, -0.0897941, 0, 0, 0, 0, 0, 0, 0, 0, 0, 0, 0, 0, 0, 0, 0, 0, 0, 0, 0, 0, 0, 0, 0, 0, 0, 0, 0, 0, 0, 0, 0, 0, 0, 0, 0, 0, 0, 0, 0, 0, 0, 0, 0, 0, 0, 0, 0, 0, 0, 0, 0, 0, 0, 0, 0, 0, 0, 0, 0, 0, 0, 0, 0, 0, 0, 0, 0, 0, 0, 0, 0, 
[2024-06-13 12:18:03.066451] [0x0000007f98d14010] [LogDataTag] [0x00002ff1] [76] 1718295482836884, 0.228835, 0, 0, 0, 0, 0, 0, 0, 0, 0, 0, 0, 0, 1.8445e+13, 0.0799638, -0.193091, -0.315406, 0.998965, -0.00525118, -0.00375052, -0.0450301, -0.00146725, -0.00174688, -0.000355688, -0.00606786, 0.000180583, -0.0249124, -0.0101542, -0.00796628, -0.0900522, 0, 0, 0, 0, 0, 0, 0, 0, 0, 0, 0, 0, 0, 0, 0, 0, 0, 0, 0, 0, 0, 0, 0, 0, 0, 0, 0, 0, 0, 0, 0, 0, 0, 0, 0, 0, 0, 0, 0, 0, 0, 0, 0, 0, 0, 0, 0, 0, 0, 0, 0, 0, 0, 0, 0, 0, 0, 0, 0, 0, 0, 0, 0, 0, 0, 0, 0, 0, 0, 0, 0, 
[2024-06-13 12:18:03.076278] [0x0000007f91db89a0] [LogDataTag] [0x00002ff1] [81] 1718295482836884, 0.238913, 0, 0, 0, 0, 0, 0, 0, 0, 0, 0, 0, 0, 1.8445e+13, 0.0799527, -0.1931, -0.315394, 0.998964, -0.00524855, -0.0037662, -0.0450578, -0.00217394, 0.000607785, 1.46322e-05, 0.000967285, -0.00801977, 0.00483776, -0.0101473, -0.00799766, -0.0901074, 0, 0, 0, 0, 0, 0, 0, 0, 0, 0, 0, 0, 0, 0, 0, 0, 0, 0, 0, 0, 0, 0, 0, 0, 0, 0, 0, 0, 0, 0, 0, 0, 0, 0, 0, 0, 0, 0, 0, 0, 0, 0, 0, 0, 0, 0, 0, 0, 0, 0, 0, 0, 0, 0, 0, 0, 0, 0, 0, 0, 0, 0, 0, 0, 0, 0, 0, 0, 0, 0, 0, 
[2024-06-13 12:18:03.086212] [0x0000007f925b99a0] [LogDataTag] [0x00002ff1] [86] 1718295482836884, 0.24889, 0, 0, 0, 0, 0, 0, 0, 0, 0, 0, 0, 0, 1.8445e+13, 0.0799596, -0.193088, -0.315295, 0.99897, -0.00524335, -0.00374852, -0.0449203, -0.00156088, 0.00301849, -0.000566191, 0.00317301, 0.000419255, 0.0449355, -0.0101396, -0.00796046, -0.0898324, 0, 0, 0, 0, 0, 0, 0, 0, 0, 0, 0, 0, 0, 0, 0, 0, 0, 0, 0, 0, 0, 0, 0, 0, 0, 0, 0, 0, 0, 0, 0, 0, 0, 0, 0, 0, 0, 0, 0, 0, 0, 0, 0, 0, 0, 0, 0, 0, 0, 0, 0, 0, 0, 0, 0, 0, 0, 0, 0, 0, 0, 0, 0, 0, 0, 0, 0, 0, 0, 0, 0, 
[2024-06-13 12:18:03.096442] [0x0000007f915b79a0] [LogDataTag] [0x00002ff1] [89] 1718295482836884, 0.259073, 0, 0, 0, 0, 0, 0, 0, 0, 0, 0, 0, 0, 1.8445e+13, 0.079966, -0.193068, -0.315207, 0.998977, -0.0052424, -0.00374416, -0.0447588, -0.00177017, 0.00246893, -0.000745035, 0.00133639, -0.00321261, 0.0331266, -0.0101394, -0.00795003, -0.0895091, 0, 0, 0, 0, 0, 0, 0, 0, 0, 0, 0, 0, 0, 0, 0, 0, 0, 0, 0, 0, 0, 0, 0, 0, 0, 0, 0, 0, 0, 0, 0, 0, 0, 0, 0, 0, 0, 0, 0, 0, 0, 0, 0, 0, 0, 0, 0, 0, 0, 0, 0, 0, 0, 0, 0, 0, 0, 0, 0, 0, 0, 0, 0, 0, 0, 0, 0, 0, 0, 0, 0, 
[2024-06-13 12:18:03.106259] [0x0000007f915b79a0] [LogDataTag] [0x00002ff1] [94] 1718295482836884, 0.268902, 0, 0, 0, 0, 0, 0, 0, 0, 0, 0, 0, 0, 1.8445e+13, 0.0799666, -0.193059, -0.315125, 0.998981, -0.00521542, -0.00373126, -0.0446737, -0.00237387, 0.000506627, -0.000175551, 0.00635743, 0.00661552, 0.0133619, -0.0100873, -0.00792099, -0.0893391, 0, 0, 0, 0, 0, 0, 0, 0, 0, 0, 0, 0, 0, 0, 0, 0, 0, 0, 0, 0, 0, 0, 0, 0, 0, 0, 0, 0, 0, 0, 0, 0, 0, 0, 0, 0, 0, 0, 0, 0, 0, 0, 0, 0, 0, 0, 0, 0, 0, 0, 0, 0, 0, 0, 0, 0, 0, 0, 0, 0, 0, 0, 0, 0, 0, 0, 0, 0, 0, 0, 0, 
[2024-06-13 12:18:03.116410] [0x0000007f915b79a0] [LogDataTag] [0x00002ff1] [99] 1718295482836884, 0.27889, 0, 0, 0, 0, 0, 0, 0, 0, 0, 0, 0, 0, 1.8445e+13, 0.0799666, -0.193059, -0.315125, 0.998981, -0.00521542, -0.00373126, -0.0446737, -0.00237387, 0.000506627, -0.000175551, 0.00635743, 0.00661552, 0.0133619, -0.0100873, -0.00792099, -0.0893391, 0, 0, 0, 0, 0, 0, 0, 0, 0, 0, 0, 0, 0, 0, 0, 0, 0, 0, 0, 0, 0, 0, 0, 0, 0, 0, 0, 0, 0, 0, 0, 0, 0, 0, 0, 0, 0, 0, 0, 0, 0, 0, 0, 0, 0, 0, 0, 0, 0, 0, 0, 0, 0, 0, 0, 0, 0, 0, 0, 0, 0, 0, 0, 0, 0, 0, 0, 0, 0, 0, 0, 
[2024-06-13 12:18:03.126185] [0x0000007f91db89a0] [LogDataTag] [0x00002ff1] [103] 1718295482836884, 0.288834, 0, 0, 0, 0, 0, 0, 0, 0, 0, 0, 0, 0, 1.8445e+13, 0.0833506, -0.184495, -0.313844, 0.998964, -0.00526374, -0.00377178, -0.045044, -0.00252502, -0.000829717, 0.00107262, -0.00132038, -0.00309364, -0.0296652, -0.0101773, -0.00801003, -0.0900796, 0, 0, 0, 0, 0, 0, 0, 0, 0, 0, 0, 0, 0, 0, 0, 0, 0, 0, 0, 0, 0, 0, 0, 0, 0, 0, 0, 0, 0, 0, 0, 0, 0, 0, 0, 0, 0, 0, 0, 0, 0, 0, 0, 0, 0, 0, 0, 0, 0, 0, 0, 0, 0, 0, 0, 0, 0, 0, 0, 0, 0, 0, 0, 0, 0, 0, 0, 0, 0, 0, 0, 
[2024-06-13 12:18:03.136275] [0x0000007f915b79a0] [LogDataTag] [0x00002ff1] [108] 1718295482836884, 0.298875, 0, 0, 0, 0, 0, 0, 0, 0, 0, 0, 0, 0, 1.8445e+13, 0.0833419, -0.184498, -0.313775, 0.998961, -0.00526844, -0.00378663, -0.0451048, -0.00256056, 0.00112997, 0.000700465, 0.00519601, -0.00331214, -0.00251072, -0.0101848, -0.00804074, -0.0902013, 0, 0, 0, 0, 0, 0, 0, 0, 0, 0, 0, 0, 0, 0, 0, 0, 0, 0, 0, 0, 0, 0, 0, 0, 0, 0, 0, 0, 0, 0, 0, 0, 0, 0, 0, 0, 0, 0, 0, 0, 0, 0, 0, 0, 0, 0, 0, 0, 0, 0, 0, 0, 0, 0, 0, 0, 0, 0, 0, 0, 0, 0, 0, 0, 0, 0, 0, 0, 0, 0, 0, 
[2024-06-13 12:18:03.146228] [0x0000007f915b79a0] [LogDataTag] [0x00002ff1] [112] 1718295482836884, 0.308937, 0, 0, 0, 0, 0, 0, 0, 0, 0, 0, 0, 0, 1.8445e+13, 0.0833419, -0.184498, -0.313775, 0.998961, -0.00526844, -0.00378663, -0.0451048, -0.00256056, 0.00112997, 0.000700465, 0.00519601, -0.00331214, -0.00251072, -0.0101848, -0.00804074, -0.0902013, 0, 0, 0, 0, 0, 0, 0, 0, 0, 0, 0, 0, 0, 0, 0, 0, 0, 0, 0, 0, 0, 0, 0, 0, 0, 0, 0, 0, 0, 0, 0, 0, 0, 0, 0, 0, 0, 0, 0, 0, 0, 0, 0, 0, 0, 0, 0, 0, 0, 0, 0, 0, 0, 0, 0, 0, 0, 0, 0, 0, 0, 0, 0, 0, 0, 0, 0, 0, 0, 0, 0, 
[2024-06-13 12:18:03.156225] [0x0000007f91db89a0] [LogDataTag] [0x00002ff1] [116] 1718295482836884, 0.318865, 0, 0, 0, 0, 0, 0, 0, 0, 0, 0, 0, 0, 1.8445e+13, 0.0833207, -0.184458, -0.31366, 0.998972, -0.00523699, -0.00376616, -0.0448732, -0.00251083, 0.00334574, -0.000187904, 0.0100219, 0.00368897, 0.0348742, -0.0101257, -0.00799466, -0.0897379, 0, 0, 0, 0, 0, 0, 0, 0, 0, 0, 0, 0, 0, 0, 0, 0, 0, 0, 0, 0, 0, 0, 0, 0, 0, 0, 0, 0, 0, 0, 0, 0, 0, 0, 0, 0, 0, 0, 0, 0, 0, 0, 0, 0, 0, 0, 0, 0, 0, 0, 0, 0, 0, 0, 0, 0, 0, 0, 0, 0, 0, 0, 0, 0, 0, 0, 0, 0, 0, 0, 0, 
[2024-06-13 12:18:03.167334] [0x0000007f91db89a0] [LogDataTag] [0x00002ff1] [121] 1718295482836884, 0.329992, 0, 0, 0, 0, 0, 0, 0, 0, 0, 0, 0, 0, 1.8445e+13, 0.0833207, -0.184458, -0.31366, 0.998972, -0.00523699, -0.00376616, -0.0448732, -0.00251083, 0.00334574, -0.000187904, 0.0100219, 0.00368897, 0.0348742, -0.0101257, -0.00799466, -0.0897379, 0, 0, 0, 0, 0, 0, 0, 0, 0, 0, 0, 0, 0, 0, 0, 0, 0, 0, 0, 0, 0, 0, 0, 0, 0, 0, 0, 0, 0, 0, 0, 0, 0, 0, 0, 0, 0, 0, 0, 0, 0, 0, 0, 0, 0, 0, 0, 0, 0, 0, 0, 0, 0, 0, 0, 0, 0, 0, 0, 0, 0, 0, 0, 0, 0, 0, 0, 0, 0, 0, 0, 
[2024-06-13 12:18:03.176227] [0x0000007f98d14010] [LogDataTag] [0x00002ff1] [125] 1718295482836884, 0.338878, 0, 0, 0, 0, 0, 0, 0, 0, 0, 0, 0, 0, 1.8445e+13, 0.0832988, -0.184427, -0.313564, 0.998978, -0.00526343, -0.00374621, -0.0447474, -0.00244458, 0.000637268, 0.000438753, -0.00243401, -0.00638385, -0.00375437, -0.0101813, -0.00795589, -0.089486, 0, 0, 0, 0, 0, 0, 0, 0, 0, 0, 0, 0, 0, 0, 0, 0, 0, 0, 0, 0, 0, 0, 0, 0, 0, 0, 0, 0, 0, 0, 0, 0, 0, 0, 0, 0, 0, 0, 0, 0, 0, 0, 0, 0, 0, 0, 0, 0, 0, 0, 0, 0, 0, 0, 0, 0, 0, 0, 0, 0, 0, 0, 0, 0, 0, 0, 0, 0, 0, 0, 0, 
[2024-06-13 12:18:03.186250] [0x0000007f925b99a0] [LogDataTag] [0x00002ff1] [130] 1718295482836884, 0.348892, 0, 0, 0, 0, 0, 0, 0, 0, 0, 0, 0, 0, 1.8445e+13, 0.0832871, -0.184429, -0.313519, 0.998974, -0.00527522, -0.00375276, -0.0448336, -0.00260299, -0.00014905, 0.000357753, -0.00219208, -0.00568287, -0.0236768, -0.0102036, -0.00797092, -0.0896584, 0, 0, 0, 0, 0, 0, 0, 0, 0, 0, 0, 0, 0, 0, 0, 0, 0, 0, 0, 0, 0, 0, 0, 0, 0, 0, 0, 0, 0, 0, 0, 0, 0, 0, 0, 0, 0, 0, 0, 0, 0, 0, 0, 0, 0, 0, 0, 0, 0, 0, 0, 0, 0, 0, 0, 0, 0, 0, 0, 0, 0, 0, 0, 0, 0, 0, 0, 0, 0, 0, 0, 
[2024-06-13 12:18:03.196842] [0x0000007f925b99a0] [LogDataTag] [0x00002ff1] [134] 1718295482836884, 0.359498, 0, 0, 0, 0, 0, 0, 0, 0, 0, 0, 0, 0, 1.8445e+13, 0.0832871, -0.184429, -0.313519, 0.998974, -0.00527522, -0.00375276, -0.0448336, -0.00260299, -0.00014905, 0.000357753, -0.00219208, -0.00568287, -0.0236768, -0.0102036, -0.00797092, -0.0896584, 0, 0, 0, 0, 0, 0, 0, 0, 0, 0, 0, 0, 0, 0, 0, 0, 0, 0, 0, 0, 0, 0, 0, 0, 0, 0, 0, 0, 0, 0, 0, 0, 0, 0, 0, 0, 0, 0, 0, 0, 0, 0, 0, 0, 0, 0, 0, 0, 0, 0, 0, 0, 0, 0, 0, 0, 0, 0, 0, 0, 0, 0, 0, 0, 0, 0, 0, 0, 0, 0, 0, 
[2024-06-13 12:18:03.206184] [0x0000007f91db89a0] [LogDataTag] [0x00002ff1] [138] 1718295482836884, 0.36888, 0, 0, 0, 0, 0, 0, 0, 0, 0, 0, 0, 0, 1.8445e+13, 0.0832505, -0.184428, -0.31341, 0.998963, -0.00529806, -0.00379713, -0.0450514, -0.00228825, 0.00224925, -2.80937e-05, -0.000612678, 0.00407202, 0.0124455, -0.0102435, -0.00806384, -0.0900938, 0, 0, 0, 0, 0, 0, 0, 0, 0, 0, 0, 0, 0, 0, 0, 0, 0, 0, 0, 0, 0, 0, 0, 0, 0, 0, 0, 0, 0, 0, 0, 0, 0, 0, 0, 0, 0, 0, 0, 0, 0, 0, 0, 0, 0, 0, 0, 0, 0, 0, 0, 0, 0, 0, 0, 0, 0, 0, 0, 0, 0, 0, 0, 0, 0, 0, 0, 0, 0, 0, 0, 
[2024-06-13 12:18:03.216908] [0x0000007f91db89a0] [LogDataTag] [0x00002ff1] [142] 1718295482836884, 0.379546, 0, 0, 0, 0, 0, 0, 0, 0, 0, 0, 0, 0, 1.8445e+13, 0.083239, -0.184406, -0.313379, 0.998968, -0.00531428, -0.00376914, -0.04496, -0.00231327, 0.00327451, 0.000267774, -0.00112837, 0.00445379, 0.0231161, -0.0102792, -0.00800844, -0.0899111, 0, 0, 0, 0, 0, 0, 0, 0, 0, 0, 0, 0, 0, 0, 0, 0, 0, 0, 0, 0, 0, 0, 0, 0, 0, 0, 0, 0, 0, 0, 0, 0, 0, 0, 0, 0, 0, 0, 0, 0, 0, 0, 0, 0, 0, 0, 0, 0, 0, 0, 0, 0, 0, 0, 0, 0, 0, 0, 0, 0, 0, 0, 0, 0, 0, 0, 0, 0, 0, 0, 0, 
[2024-06-13 12:18:03.226188] [0x0000007f98d14010] [LogDataTag] [0x00002ff1] [146] 1718295482836884, 0.388853, 0, 0, 0, 0, 0, 0, 0, 0, 0, 0, 0, 0, 1.8445e+13, 0.083228, -0.184379, -0.313345, 0.998972, -0.00530071, -0.00377776, -0.0448559, -0.00215082, 0.00310933, 0.000937455, 0.00647826, 0.00279806, 0.0225618, -0.0102521, -0.00802338, -0.0897027, 0, 0, 0, 0, 0, 0, 0, 0, 0, 0, 0, 0, 0, 0, 0, 0, 0, 0, 0, 0, 0, 0, 0, 0, 0, 0, 0, 0, 0, 0, 0, 0, 0, 0, 0, 0, 0, 0, 0, 0, 0, 0, 0, 0, 0, 0, 0, 0, 0, 0, 0, 0, 0, 0, 0, 0, 0, 0, 0, 0, 0, 0, 0, 0, 0, 0, 0, 0, 0, 0, 0, 
[2024-06-13 12:18:03.236238] [0x0000007f915b79a0] [LogDataTag] [0x00002ff1] [150] 1718295482836884, 0.398864, 0, 0, 0, 0, 0, 0, 0, 0, 0, 0, 0, 0, 1.8445e+13, 0.0832172, -0.184357, -0.31331, 0.998976, -0.00531207, -0.00378071, -0.044781, -0.00225607, 0.00244632, 0.000798141, 0.00278863, -0.00343841, 0.0143077, -0.0102752, -0.00802952, -0.0895525, 0, 0, 0, 0, 0, 0, 0, 0, 0, 0, 0, 0, 0, 0, 0, 0, 0, 0, 0, 0, 0, 0, 0, 0, 0, 0, 0, 0, 0, 0, 0, 0, 0, 0, 0, 0, 0, 0, 0, 0, 0, 0, 0, 0, 0, 0, 0, 0, 0, 0, 0, 0, 0, 0, 0, 0, 0, 0, 0, 0, 0, 0, 0, 0, 0, 0, 0, 0, 0, 0, 0, 
[2024-06-13 12:18:03.246229] [0x0000007f915b79a0] [LogDataTag] [0x00002ff1] [155] 1718295482836884, 0.408878, 0, 0, 0, 0, 0, 0, 0, 0, 0, 0, 0, 0, 1.8445e+13, 0.0832172, -0.184357, -0.31331, 0.998976, -0.00531207, -0.00378071, -0.044781, -0.00225607, 0.00244632, 0.000798141, 0.00278863, -0.00343841, 0.0143077, -0.0102752, -0.00802952, -0.0895525, 0, 0, 0, 0, 0, 0, 0, 0, 0, 0, 0, 0, 0, 0, 0, 0, 0, 0, 0, 0, 0, 0, 0, 0, 0, 0, 0, 0, 0, 0, 0, 0, 0, 0, 0, 0, 0, 0, 0, 0, 0, 0, 0, 0, 0, 0, 0, 0, 0, 0, 0, 0, 0, 0, 0, 0, 0, 0, 0, 0, 0, 0, 0, 0, 0, 0, 0, 0, 0, 0, 0, 
[2024-06-13 12:18:03.256554] [0x0000007f91db89a0] [LogDataTag] [0x00002ff1] [159] 1718295482836884, 0.418858, 0, 0, 0, 0, 0, 0, 0, 0, 0, 0, 0, 0, 1.8445e+13, 0.0831928, -0.184332, -0.313243, 0.998971, -0.0053225, -0.00378977, -0.0448843, -0.00226178, 0.00116743, 0.00138186, -0.00176813, -0.000708905, -0.0152068, -0.0102944, -0.00804962, -0.0897593, 0, 0, 0, 0, 0, 0, 0, 0, 0, 0, 0, 0, 0, 0, 0, 0, 0, 0, 0, 0, 0, 0, 0, 0, 0, 0, 0, 0, 0, 0, 0, 0, 0, 0, 0, 0, 0, 0, 0, 0, 0, 0, 0, 0, 0, 0, 0, 0, 0, 0, 0, 0, 0, 0, 0, 0, 0, 0, 0, 0, 0, 0, 0, 0, 0, 0, 0, 0, 0, 0, 0, 
[2024-06-13 12:18:03.266233] [0x0000007f91db89a0] [LogDataTag] [0x00002ff1] [164] 1718295482836884, 0.428879, 0, 0, 0, 0, 0, 0, 0, 0, 0, 0, 0, 0, 1.8445e+13, 0.0831928, -0.184332, -0.313243, 0.998971, -0.0053225, -0.00378977, -0.0448843, -0.00226178, 0.00116743, 0.00138186, -0.00176813, -0.000708905, -0.0152068, -0.0102944, -0.00804962, -0.0897593, 0, 0, 0, 0, 0, 0, 0, 0, 0, 0, 0, 0, 0, 0, 0, 0, 0, 0, 0, 0, 0, 0, 0, 0, 0, 0, 0, 0, 0, 0, 0, 0, 0, 0, 0, 0, 0, 0, 0, 0, 0, 0, 0, 0, 0, 0, 0, 0, 0, 0, 0, 0, 0, 0, 0, 0, 0, 0, 0, 0, 0, 0, 0, 0, 0, 0, 0, 0, 0, 0, 0, 
[2024-06-13 12:18:03.276244] [0x0000007f91db89a0] [LogDataTag] [0x00002ff1] [168] 1718295482836884, 0.43888, 0, 0, 0, 0, 0, 0, 0, 0, 0, 0, 0, 0, 1.8445e+13, 0.0831928, -0.184332, -0.313243, 0.998971, -0.0053225, -0.00378977, -0.0448843, -0.00226178, 0.00116743, 0.00138186, -0.00176813, -0.000708905, -0.0152068, -0.0102944, -0.00804962, -0.0897593, 0, 0, 0, 0, 0, 0, 0, 0, 0, 0, 0, 0, 0, 0, 0, 0, 0, 0, 0, 0, 0, 0, 0, 0, 0, 0, 0, 0, 0, 0, 0, 0, 0, 0, 0, 0, 0, 0, 0, 0, 0, 0, 0, 0, 0, 0, 0, 0, 0, 0, 0, 0, 0, 0, 0, 0, 0, 0, 0, 0, 0, 0, 0, 0, 0, 0, 0, 0, 0, 0, 0, 
[2024-06-13 12:18:03.286193] [0x0000007f925b99a0] [LogDataTag] [0x00002ff1] [173] 1718295482836884, 0.448855, 0, 0, 0, 0, 0, 0, 0, 0, 0, 0, 0, 0, 1.8445e+13, 0.0831577, -0.184282, -0.313156, 0.998967, -0.00530849, -0.00382223, -0.0449739, -0.00193799, 0.00314193, 0.000853669, 0.00510886, -0.00427302, 0.010503, -0.0102627, -0.00811415, -0.0899385, 0, 0, 0, 0, 0, 0, 0, 0, 0, 0, 0, 0, 0, 0, 0, 0, 0, 0, 0, 0, 0, 0, 0, 0, 0, 0, 0, 0, 0, 0, 0, 0, 0, 0, 0, 0, 0, 0, 0, 0, 0, 0, 0, 0, 0, 0, 0, 0, 0, 0, 0, 0, 0, 0, 0, 0, 0, 0, 0, 0, 0, 0, 0, 0, 0, 0, 0, 0, 0, 0, 0, 
[2024-06-13 12:18:03.296144] [0x0000007f91db89a0] [LogDataTag] [0x00002ff1] [178] 1718295482836884, 0.458834, 0, 0, 0, 0, 0, 0, 0, 0, 0, 0, 0, 0, 1.8445e+13, 0.0831401, -0.184228, -0.313111, 0.998971, -0.0053026, -0.00383859, -0.0448785, -0.00211435, 0.00317288, 0.000502045, 0.00125784, 0.00184779, 0.0059117, -0.0102503, -0.00814531, -0.0897473, 0, 0, 0, 0, 0, 0, 0, 0, 0, 0, 0, 0, 0, 0, 0, 0, 0, 0, 0, 0, 0, 0, 0, 0, 0, 0, 0, 0, 0, 0, 0, 0, 0, 0, 0, 0, 0, 0, 0, 0, 0, 0, 0, 0, 0, 0, 0, 0, 0, 0, 0, 0, 0, 0, 0, 0, 0, 0, 0, 0, 0, 0, 0, 0, 0, 0, 0, 0, 0, 0, 0, 
[2024-06-13 12:18:03.306262] [0x0000007f91db89a0] [LogDataTag] [0x00002ff1] [182] 1718295482836884, 0.468917, 0, 0, 0, 0, 0, 0, 0, 0, 0, 0, 0, 0, 1.8445e+13, 0.0831401, -0.184228, -0.313111, 0.998971, -0.0053026, -0.00383859, -0.0448785, -0.00211435, 0.00317288, 0.000502045, 0.00125784, 0.00184779, 0.0059117, -0.0102503, -0.00814531, -0.0897473, 0, 0, 0, 0, 0, 0, 0, 0, 0, 0, 0, 0, 0, 0, 0, 0, 0, 0, 0, 0, 0, 0, 0, 0, 0, 0, 0, 0, 0, 0, 0, 0, 0, 0, 0, 0, 0, 0, 0, 0, 0, 0, 0, 0, 0, 0, 0, 0, 0, 0, 0, 0, 0, 0, 0, 0, 0, 0, 0, 0, 0, 0, 0, 0, 0, 0, 0, 0, 0, 0, 0, 
[2024-06-13 12:18:03.316135] [0x0000007f915b79a0] [LogDataTag] [0x00002ff1] [186] 1718295482836884, 0.478791, 0, 0, 0, 0, 0, 0, 0, 0, 0, 0, 0, 0, 1.8445e+13, 0.0831234, -0.184182, -0.31307, 0.998972, -0.00532941, -0.00381525, -0.0448481, -0.00198128, 0.00230568, 0.0011712, -0.00638742, -0.00428339, -0.00146597, -0.0103062, -0.00810077, -0.0896865, 0, 0, 0, 0, 0, 0, 0, 0, 0, 0, 0, 0, 0, 0, 0, 0, 0, 0, 0, 0, 0, 0, 0, 0, 0, 0, 0, 0, 0, 0, 0, 0, 0, 0, 0, 0, 0, 0, 0, 0, 0, 0, 0, 0, 0, 0, 0, 0, 0, 0, 0, 0, 0, 0, 0, 0, 0, 0, 0, 0, 0, 0, 0, 0, 0, 0, 0, 0, 0, 0, 0, 
[2024-06-13 12:18:03.326158] [0x0000007f915b79a0] [LogDataTag] [0x00002ff1] [191] 1718295482836884, 0.488863, 0, 0, 0, 0, 0, 0, 0, 0, 0, 0, 0, 0, 1.8445e+13, 0.0831234, -0.184182, -0.31307, 0.998972, -0.00532941, -0.00381525, -0.0448481, -0.00198128, 0.00230568, 0.0011712, -0.00638742, -0.00428339, -0.00146597, -0.0103062, -0.00810077, -0.0896865, 0, 0, 0, 0, 0, 0, 0, 0, 0, 0, 0, 0, 0, 0, 0, 0, 0, 0, 0, 0, 0, 0, 0, 0, 0, 0, 0, 0, 0, 0, 0, 0, 0, 0, 0, 0, 0, 0, 0, 0, 0, 0, 0, 0, 0, 0, 0, 0, 0, 0, 0, 0, 0, 0, 0, 0, 0, 0, 0, 0, 0, 0, 0, 0, 0, 0, 0, 0, 0, 0, 0, 
[2024-06-13 12:18:03.336197] [0x0000007f925b99a0] [LogDataTag] [0x00002ff1] [195] 1718295482836884, 0.498851, 0, 0, 0, 0, 0, 0, 0, 0, 0, 0, 0, 0, 1.8445e+13, 0.0831114, -0.184146, -0.313025, 0.998969, -0.0053281, -0.00381343, -0.0449163, -0.00180091, 0.00239203, 0.0015454, -0.00306339, -0.00404473, -0.00924399, -0.0103032, -0.00809772, -0.0898231, 0, 0, 0, 0, 0, 0, 0, 0, 0, 0, 0, 0, 0, 0, 0, 0, 0, 0, 0, 0, 0, 0, 0, 0, 0, 0, 0, 0, 0, 0, 0, 0, 0, 0, 0, 0, 0, 0, 0, 0, 0, 0, 0, 0, 0, 0, 0, 0, 0, 0, 0, 0, 0, 0, 0, 0, 0, 0, 0, 0, 0, 0, 0, 0, 0, 0, 0, 0, 0, 0, 0, 
[2024-06-13 12:18:03.346161] [0x0000007f925b99a0] [LogDataTag] [0x00002ff1] [200] 1718295482836884, 0.508866, 0, 0, 0, 0, 0, 0, 0, 0, 0, 0, 0, 0, 1.8445e+13, 0.0831114, -0.184146, -0.313025, 0.998969, -0.0053281, -0.00381343, -0.0449163, -0.00180091, 0.00239203, 0.0015454, -0.00306339, -0.00404473, -0.00924399, -0.0103032, -0.00809772, -0.0898231, 0, 0, 0, 0, 0, 0, 0, 0, 0, 0, 0, 0, 0, 0, 0, 0, 0, 0, 0, 0, 0, 0, 0, 0, 0, 0, 0, 0, 0, 0, 0, 0, 0, 0, 0, 0, 0, 0, 0, 0, 0, 0, 0, 0, 0, 0, 0, 0, 0, 0, 0, 0, 0, 0, 0, 0, 0, 0, 0, 0, 0, 0, 0, 0, 0, 0, 0, 0, 0, 0, 0, 
[2024-06-13 12:18:03.356186] [0x0000007f91db89a0] [LogDataTag] [0x00002ff1] [204] 1718295482836884, 0.518852, 0, 0, 0, 0, 0, 0, 0, 0, 0, 0, 0, 0, 1.8445e+13, 0.083102, -0.184102, -0.312985, 0.998967, -0.00531088, -0.00380882, -0.0449601, -0.0018421, 0.00329536, 0.0011256, 0.00248156, 0.00455944, -0.00305164, -0.0102688, -0.00808743, -0.0899109, 0, 0, 0, 0, 0, 0, 0, 0, 0, 0, 0, 0, 0, 0, 0, 0, 0, 0, 0, 0, 0, 0, 0, 0, 0, 0, 0, 0, 0, 0, 0, 0, 0, 0, 0, 0, 0, 0, 0, 0, 0, 0, 0, 0, 0, 0, 0, 0, 0, 0, 0, 0, 0, 0, 0, 0, 0, 0, 0, 0, 0, 0, 0, 0, 0, 0, 0, 0, 0, 0, 0, 
[2024-06-13 12:18:03.366215] [0x0000007f91db89a0] [LogDataTag] [0x00002ff1] [208] 1718295482836884, 0.528872, 0, 0, 0, 0, 0, 0, 0, 0, 0, 0, 0, 0, 1.8445e+13, 0.083102, -0.184102, -0.312985, 0.998967, -0.00531088, -0.00380882, -0.0449601, -0.0018421, 0.00329536, 0.0011256, 0.00248156, 0.00455944, -0.00305164, -0.0102688, -0.00808743, -0.0899109, 0, 0, 0, 0, 0, 0, 0, 0, 0, 0, 0, 0, 0, 0, 0, 0, 0, 0, 0, 0, 0, 0, 0, 0, 0, 0, 0, 0, 0, 0, 0, 0, 0, 0, 0, 0, 0, 0, 0, 0, 0, 0, 0, 0, 0, 0, 0, 0, 0, 0, 0, 0, 0, 0, 0, 0, 0, 0, 0, 0, 0, 0, 0, 0, 0, 0, 0, 0, 0, 0, 0, 
[2024-06-13 12:18:03.376169] [0x0000007f91db89a0] [LogDataTag] [0x00002ff1] [213] 1718295482836884, 0.53885, 0, 0, 0, 0, 0, 0, 0, 0, 0, 0, 0, 0, 1.8445e+13, 0.0830987, -0.184046, -0.312949, 0.99897, -0.0052878, -0.00382692, -0.0449059, -0.00185579, 0.00363292, 0.00130406, 0.00521548, -0.00610243, 0.00882837, -0.0102215, -0.00812095, -0.0898024, 0, 0, 0, 0, 0, 0, 0, 0, 0, 0, 0, 0, 0, 0, 0, 0, 0, 0, 0, 0, 0, 0, 0, 0, 0, 0, 0, 0, 0, 0, 0, 0, 0, 0, 0, 0, 0, 0, 0, 0, 0, 0, 0, 0, 0, 0, 0, 0, 0, 0, 0, 0, 0, 0, 0, 0, 0, 0, 0, 0, 0, 0, 0, 0, 0, 0, 0, 0, 0, 0, 0, 
[2024-06-13 12:18:03.386242] [0x0000007f98d14010] [LogDataTag] [0x00002ff1] [217] 1718295482836884, 0.54888, 0, 0, 0, 0, 0, 0, 0, 0, 0, 0, 0, 0, 1.8445e+13, 0.083098, -0.183992, -0.31292, 0.99897, -0.00528163, -0.0038561, -0.0449087, -0.00170832, 0.00313668, 0.000853241, -0.00104883, -0.00598826, -0.00568572, -0.0102065, -0.00817872, -0.0898078, 0, 0, 0, 0, 0, 0, 0, 0, 0, 0, 0, 0, 0, 0, 0, 0, 0, 0, 0, 0, 0, 0, 0, 0, 0, 0, 0, 0, 0, 0, 0, 0, 0, 0, 0, 0, 0, 0, 0, 0, 0, 0, 0, 0, 0, 0, 0, 0, 0, 0, 0, 0, 0, 0, 0, 0, 0, 0, 0, 0, 0, 0, 0, 0, 0, 0, 0, 0, 0, 0, 0, 
[2024-06-13 12:18:03.396256] [0x0000007f925b99a0] [LogDataTag] [0x00002ff1] [221] 1718295482836884, 0.558888, 0, 0, 0, 0, 0, 0, 0, 0, 0, 0, 0, 0, 1.8445e+13, 0.083098, -0.183992, -0.31292, 0.99897, -0.00528163, -0.0038561, -0.0449087, -0.00170832, 0.00313668, 0.000853241, -0.00104883, -0.00598826, -0.00568572, -0.0102065, -0.00817872, -0.0898078, 0, 0, 0, 0, 0, 0, 0, 0, 0, 0, 0, 0, 0, 0, 0, 0, 0, 0, 0, 0, 0, 0, 0, 0, 0, 0, 0, 0, 0, 0, 0, 0, 0, 0, 0, 0, 0, 0, 0, 0, 0, 0, 0, 0, 0, 0, 0, 0, 0, 0, 0, 0, 0, 0, 0, 0, 0, 0, 0, 0, 0, 0, 0, 0, 0, 0, 0, 0, 0, 0, 0, 
[2024-06-13 12:18:03.406392] [0x0000007f98d14010] [LogDataTag] [0x00002ff1] [226] 1718295482836884, 0.568918, 0, 0, 0, 0, 0, 0, 0, 0, 0, 0, 0, 0, 1.8445e+13, 0.0830972, -0.183968, -0.312906, 0.998968, -0.00529235, -0.00385455, -0.0449518, -0.00174226, 0.00312076, 0.00103993, -0.00587766, 0.00137142, -0.0112204, -0.0102278, -0.00817704, -0.089894, 0, 0, 0, 0, 0, 0, 0, 0, 0, 0, 0, 0, 0, 0, 0, 0, 0, 0, 0, 0, 0, 0, 0, 0, 0, 0, 0, 0, 0, 0, 0, 0, 0, 0, 0, 0, 0, 0, 0, 0, 0, 0, 0, 0, 0, 0, 0, 0, 0, 0, 0, 0, 0, 0, 0, 0, 0, 0, 0, 0, 0, 0, 0, 0, 0, 0, 0, 0, 0, 0, 0, 
[2024-06-13 12:18:03.416184] [0x0000007f925b99a0] [LogDataTag] [0x00002ff1] [230] 1718295482836884, 0.578836, 0, 0, 0, 0, 0, 0, 0, 0, 0, 0, 0, 0, 1.8445e+13, 0.0830965, -0.183917, -0.312883, 0.998965, -0.00529044, -0.00386097, -0.0450046, -0.00187575, 0.00380081, 0.000831222, -0.000293638, -0.00182327, -0.0031635, -0.0102229, -0.00819024, -0.0899997, 0, 0, 0, 0, 0, 0, 0, 0, 0, 0, 0, 0, 0, 0, 0, 0, 0, 0, 0, 0, 0, 0, 0, 0, 0, 0, 0, 0, 0, 0, 0, 0, 0, 0, 0, 0, 0, 0, 0, 0, 0, 0, 0, 0, 0, 0, 0, 0, 0, 0, 0, 0, 0, 0, 0, 0, 0, 0, 0, 0, 0, 0, 0, 0, 0, 0, 0, 0, 0, 0, 0, 
[2024-06-13 12:18:03.426143] [0x0000007f98d14010] [LogDataTag] [0x00002ff1] [234] 1718295482836884, 0.588784, 0, 0, 0, 0, 0, 0, 0, 0, 0, 0, 0, 0, 1.8445e+13, 0.083096, -0.183888, -0.312872, 0.998966, -0.00527872, -0.00385004, -0.0449873, -0.00194041, 0.00412183, 0.00109832, 0.00428154, 0.0029097, 0.00280449, -0.0102006, -0.00816717, -0.0899653, 0, 0, 0, 0, 0, 0, 0, 0, 0, 0, 0, 0, 0, 0, 0, 0, 0, 0, 0, 0, 0, 0, 0, 0, 0, 0, 0, 0, 0, 0, 0, 0, 0, 0, 0, 0, 0, 0, 0, 0, 0, 0, 0, 0, 0, 0, 0, 0, 0, 0, 0, 0, 0, 0, 0, 0, 0, 0, 0, 0, 0, 0, 0, 0, 0, 0, 0, 0, 0, 0, 0, 
[2024-06-13 12:18:03.436340] [0x0000007f98d14010] [LogDataTag] [0x00002ff1] [239] 1718295482836884, 0.59888, 0, 0, 0, 0, 0, 0, 0, 0, 0, 0, 0, 0, 1.8445e+13, 0.083096, -0.183888, -0.312872, 0.998966, -0.00527872, -0.00385004, -0.0449873, -0.00194041, 0.00412183, 0.00109832, 0.00428154, 0.0029097, 0.00280449, -0.0102006, -0.00816717, -0.0899653, 0, 0, 0, 0, 0, 0, 0, 0, 0, 0, 0, 0, 0, 0, 0, 0, 0, 0, 0, 0, 0, 0, 0, 0, 0, 0, 0, 0, 0, 0, 0, 0, 0, 0, 0, 0, 0, 0, 0, 0, 0, 0, 0, 0, 0, 0, 0, 0, 0, 0, 0, 0, 0, 0, 0, 0, 0, 0, 0, 0, 0, 0, 0, 0, 0, 0, 0, 0, 0, 0, 0, 
[2024-06-13 12:18:03.446241] [0x0000007f91db89a0] [LogDataTag] [0x00002ff1] [243] 1718295482836884, 0.608866, 0, 0, 0, 0, 0, 0, 0, 0, 0, 0, 0, 0, 1.8445e+13, 0.0830957, -0.183821, -0.312851, 0.998969, -0.0052741, -0.00385148, -0.0449256, -0.00183353, 0.00455156, 0.00105491, 0.00781447, -0.00504055, 0.00796216, -0.0101918, -0.00816899, -0.0898417, 0, 0, 0, 0, 0, 0, 0, 0, 0, 0, 0, 0, 0, 0, 0, 0, 0, 0, 0, 0, 0, 0, 0, 0, 0, 0, 0, 0, 0, 0, 0, 0, 0, 0, 0, 0, 0, 0, 0, 0, 0, 0, 0, 0, 0, 0, 0, 0, 0, 0, 0, 0, 0, 0, 0, 0, 0, 0, 0, 0, 0, 0, 0, 0, 0, 0, 0, 0, 0, 0, 0, 
[2024-06-13 12:18:03.456191] [0x0000007f98d14010] [LogDataTag] [0x00002ff1] [248] 1718295482836884, 0.618875, 0, 0, 0, 0, 0, 0, 0, 0, 0, 0, 0, 0, 1.8445e+13, 0.0830982, -0.18379, -0.31284, 0.99897, -0.005275, -0.00385296, -0.0449058, -0.00184542, 0.00444229, 0.00116819, 0.00102516, 0.000606307, 0.00135712, -0.0101936, -0.00817183, -0.089802, 0, 0, 0, 0, 0, 0, 0, 0, 0, 0, 0, 0, 0, 0, 0, 0, 0, 0, 0, 0, 0, 0, 0, 0, 0, 0, 0, 0, 0, 0, 0, 0, 0, 0, 0, 0, 0, 0, 0, 0, 0, 0, 0, 0, 0, 0, 0, 0, 0, 0, 0, 0, 0, 0, 0, 0, 0, 0, 0, 0, 0, 0, 0, 0, 0, 0, 0, 0, 0, 0, 0, 
[2024-06-13 12:18:03.466229] [0x0000007f98d14010] [LogDataTag] [0x00002ff1] [252] 1718295482836884, 0.628876, 0, 0, 0, 0, 0, 0, 0, 0, 0, 0, 0, 0, 1.8445e+13, 0.0830982, -0.18379, -0.31284, 0.99897, -0.005275, -0.00385296, -0.0449058, -0.00184542, 0.00444229, 0.00116819, 0.00102516, 0.000606307, 0.00135712, -0.0101936, -0.00817183, -0.089802, 0, 0, 0, 0, 0, 0, 0, 0, 0, 0, 0, 0, 0, 0, 0, 0, 0, 0, 0, 0, 0, 0, 0, 0, 0, 0, 0, 0, 0, 0, 0, 0, 0, 0, 0, 0, 0, 0, 0, 0, 0, 0, 0, 0, 0, 0, 0, 0, 0, 0, 0, 0, 0, 0, 0, 0, 0, 0, 0, 0, 0, 0, 0, 0, 0, 0, 0, 0, 0, 0, 0, 
[2024-06-13 12:18:03.476255] [0x0000007f91db89a0] [LogDataTag] [0x00002ff1] [256] 1718295482836884, 0.638898, 0, 0, 0, 0, 0, 0, 0, 0, 0, 0, 0, 0, 1.8445e+13, 0.0831071, -0.183701, -0.312808, 0.998968, -0.0052762, -0.00387001, -0.0449578, -0.00196876, 0.00454972, 0.0013917, -0.00201222, -0.004549, -0.00283232, -0.010194, -0.00820652, -0.089906, 0, 0, 0, 0, 0, 0, 0, 0, 0, 0, 0, 0, 0, 0, 0, 0, 0, 0, 0, 0, 0, 0, 0, 0, 0, 0, 0, 0, 0, 0, 0, 0, 0, 0, 0, 0, 0, 0, 0, 0, 0, 0, 0, 0, 0, 0, 0, 0, 0, 0, 0, 0, 0, 0, 0, 0, 0, 0, 0, 0, 0, 0, 0, 0, 0, 0, 0, 0, 0, 0, 0, 
[2024-06-13 12:18:03.486262] [0x0000007f91db89a0] [LogDataTag] [0x00002ff1] [261] 1718295482836884, 0.64891, 0, 0, 0, 0, 0, 0, 0, 0, 0, 0, 0, 0, 1.8445e+13, 0.0831071, -0.183701, -0.312808, 0.998968, -0.0052762, -0.00387001, -0.0449578, -0.00196876, 0.00454972, 0.0013917, -0.00201222, -0.004549, -0.00283232, -0.010194, -0.00820652, -0.089906, 0, 0, 0, 0, 0, 0, 0, 0, 0, 0, 0, 0, 0, 0, 0, 0, 0, 0, 0, 0, 0, 0, 0, 0, 0, 0, 0, 0, 0, 0, 0, 0, 0, 0, 0, 0, 0, 0, 0, 0, 0, 0, 0, 0, 0, 0, 0, 0, 0, 0, 0, 0, 0, 0, 0, 0, 0, 0, 0, 0, 0, 0, 0, 0, 0, 0, 0, 0, 0, 0, 0, 
[2024-06-13 12:18:03.496236] [0x0000007f925b99a0] [LogDataTag] [0x00002ff1] [265] 1718295482836884, 0.658865, 0, 0, 0, 0, 0, 0, 0, 0, 0, 0, 0, 0, 1.8445e+13, 0.0831086, -0.18367, -0.312797, 0.998967, -0.00528966, -0.00385036, -0.0449664, -0.0019411, 0.00483089, 0.00142163, -0.00612103, 0.00253954, 0.00213784, -0.0102226, -0.00816857, -0.0899232, 0, 0, 0, 0, 0, 0, 0, 0, 0, 0, 0, 0, 0, 0, 0, 0, 0, 0, 0, 0, 0, 0, 0, 0, 0, 0, 0, 0, 0, 0, 0, 0, 0, 0, 0, 0, 0, 0, 0, 0, 0, 0, 0, 0, 0, 0, 0, 0, 0, 0, 0, 0, 0, 0, 0, 0, 0, 0, 0, 0, 0, 0, 0, 0, 0, 0, 0, 0, 0, 0, 0, 
[2024-06-13 12:18:03.506163] [0x0000007f98d14010] [LogDataTag] [0x00002ff1] [269] 1718295482836884, 0.668838, 0, 0, 0, 0, 0, 0, 0, 0, 0, 0, 0, 0, 1.8445e+13, 0.083114, -0.183607, -0.312778, 0.998969, -0.00527253, -0.00382543, -0.044928, -0.00183328, 0.00510812, 0.00143967, -0.000766487, 0.000880735, 0.00857205, -0.010191, -0.00811682, -0.0898468, 0, 0, 0, 0, 0, 0, 0, 0, 0, 0, 0, 0, 0, 0, 0, 0, 0, 0, 0, 0, 0, 0, 0, 0, 0, 0, 0, 0, 0, 0, 0, 0, 0, 0, 0, 0, 0, 0, 0, 0, 0, 0, 0, 0, 0, 0, 0, 0, 0, 0, 0, 0, 0, 0, 0, 0, 0, 0, 0, 0, 0, 0, 0, 0, 0, 0, 0, 0, 0, 0, 0, 
[2024-06-13 12:18:03.516176] [0x0000007f98d14010] [LogDataTag] [0x00002ff1] [274] 1718295482836884, 0.678864, 0, 0, 0, 0, 0, 0, 0, 0, 0, 0, 0, 0, 1.8445e+13, 0.083114, -0.183607, -0.312778, 0.998969, -0.00527253, -0.00382543, -0.044928, -0.00183328, 0.00510812, 0.00143967, -0.000766487, 0.000880735, 0.00857205, -0.010191, -0.00811682, -0.0898468, 0, 0, 0, 0, 0, 0, 0, 0, 0, 0, 0, 0, 0, 0, 0, 0, 0, 0, 0, 0, 0, 0, 0, 0, 0, 0, 0, 0, 0, 0, 0, 0, 0, 0, 0, 0, 0, 0, 0, 0, 0, 0, 0, 0, 0, 0, 0, 0, 0, 0, 0, 0, 0, 0, 0, 0, 0, 0, 0, 0, 0, 0, 0, 0, 0, 0, 0, 0, 0, 0, 0, 
[2024-06-13 12:18:03.526228] [0x0000007f925b99a0] [LogDataTag] [0x00002ff1] [278] 1718295482836884, 0.688848, 0, 0, 0, 0, 0, 0, 0, 0, 0, 0, 0, 0, 1.8445e+13, 0.0831191, -0.183577, -0.312769, 0.998969, -0.00528548, -0.0038239, -0.0449255, -0.00181771, 0.00492873, 0.00140866, -0.00625668, 0.000962965, 0.000157491, -0.010217, -0.00811491, -0.0898417, 0, 0, 0, 0, 0, 0, 0, 0, 0, 0, 0, 0, 0, 0, 0, 0, 0, 0, 0, 0, 0, 0, 0, 0, 0, 0, 0, 0, 0, 0, 0, 0, 0, 0, 0, 0, 0, 0, 0, 0, 0, 0, 0, 0, 0, 0, 0, 0, 0, 0, 0, 0, 0, 0, 0, 0, 0, 0, 0, 0, 0, 0, 0, 0, 0, 0, 0, 0, 0, 0, 0, 
[2024-06-13 12:18:03.536222] [0x0000007f91db89a0] [LogDataTag] [0x00002ff1] [282] 1718295482836884, 0.698872, 0, 0, 0, 0, 0, 0, 0, 0, 0, 0, 0, 0, 1.8445e+13, 0.0831259, -0.18355, -0.312761, 0.99897, -0.00527062, -0.00383895, -0.0448957, -0.00152742, 0.00476017, 0.00147396, 0.00408654, 0.000990534, 0.00780783, -0.0101862, -0.00814335, -0.0897821, 0, 0, 0, 0, 0, 0, 0, 0, 0, 0, 0, 0, 0, 0, 0, 0, 0, 0, 0, 0, 0, 0, 0, 0, 0, 0, 0, 0, 0, 0, 0, 0, 0, 0, 0, 0, 0, 0, 0, 0, 0, 0, 0, 0, 0, 0, 0, 0, 0, 0, 0, 0, 0, 0, 0, 0, 0, 0, 0, 0, 0, 0, 0, 0, 0, 0, 0, 0, 0, 0, 0, 
[2024-06-13 12:18:03.546243] [0x0000007f915b79a0] [LogDataTag] [0x00002ff1] [287] 1718295482836884, 0.708864, 0, 0, 0, 0, 0, 0, 0, 0, 0, 0, 0, 0, 1.8445e+13, 0.0831329, -0.183523, -0.312751, 0.99897, -0.00527426, -0.00383557, -0.0449105, -0.00143617, 0.00465211, 0.00162252, -0.00429556, 0.000952899, -0.000918418, -0.0101936, -0.00813707, -0.0898117, 0, 0, 0, 0, 0, 0, 0, 0, 0, 0, 0, 0, 0, 0, 0, 0, 0, 0, 0, 0, 0, 0, 0, 0, 0, 0, 0, 0, 0, 0, 0, 0, 0, 0, 0, 0, 0, 0, 0, 0, 0, 0, 0, 0, 0, 0, 0, 0, 0, 0, 0, 0, 0, 0, 0, 0, 0, 0, 0, 0, 0, 0, 0, 0, 0, 0, 0, 0, 0, 0, 0, 
[2024-06-13 12:18:03.556590] [0x0000007f91db89a0] [LogDataTag] [0x00002ff1] [292] 1718295482836884, 0.719267, 0, 0, 0, 0, 0, 0, 0, 0, 0, 0, 0, 0, 1.8445e+13, 0.0831503, -0.183475, -0.312734, 0.998968, -0.00527866, -0.0038469, -0.0449393, -0.00133555, 0.00479891, 0.00165367, 0.00173822, -0.000919203, 0.000909961, -0.0102012, -0.00816039, -0.0898692, 0, 0, 0, 0, 0, 0, 0, 0, 0, 0, 0, 0, 0, 0, 0, 0, 0, 0, 0, 0, 0, 0, 0, 0, 0, 0, 0, 0, 0, 0, 0, 0, 0, 0, 0, 0, 0, 0, 0, 0, 0, 0, 0, 0, 0, 0, 0, 0, 0, 0, 0, 0, 0, 0, 0, 0, 0, 0, 0, 0, 0, 0, 0, 0, 0, 0, 0, 0, 0, 0, 0, 
[2024-06-13 12:18:03.566162] [0x0000007f915b79a0] [LogDataTag] [0x00002ff1] [296] 1718295482836884, 0.728808, 0, 0, 0, 0, 0, 0, 0, 0, 0, 0, 0, 0, 1.8445e+13, 0.0831596, -0.183452, -0.312726, 0.998968, -0.00528521, -0.00385051, -0.0449455, -0.00130115, 0.00480699, 0.00146173, -0.0018444, 0.0049429, 0.00404378, -0.0102139, -0.00816826, -0.0898814, 0, 0, 0, 0, 0, 0, 0, 0, 0, 0, 0, 0, 0, 0, 0, 0, 0, 0, 0, 0, 0, 0, 0, 0, 0, 0, 0, 0, 0, 0, 0, 0, 0, 0, 0, 0, 0, 0, 0, 0, 0, 0, 0, 0, 0, 0, 0, 0, 0, 0, 0, 0, 0, 0, 0, 0, 0, 0, 0, 0, 0, 0, 0, 0, 0, 0, 0, 0, 0, 0, 0, 
[2024-06-13 12:18:03.576679] [0x0000007f925b99a0] [LogDataTag] [0x00002ff1] [300] 1718295482836884, 0.738891, 0, 0, 0, 0, 0, 0, 0, 0, 0, 0, 0, 0, 1.8445e+13, 0.083169, -0.183428, -0.312719, 0.998968, -0.00527096, -0.00385925, -0.0449507, -0.00128789, 0.00477375, 0.00147701, 0.00708861, -0.00304904, -0.000106808, -0.0101846, -0.00818448, -0.0898919, 0, 0, 0, 0, 0, 0, 0, 0, 0, 0, 0, 0, 0, 0, 0, 0, 0, 0, 0, 0, 0, 0, 0, 0, 0, 0, 0, 0, 0, 0, 0, 0, 0, 0, 0, 0, 0, 0, 0, 0, 0, 0, 0, 0, 0, 0, 0, 0, 0, 0, 0, 0, 0, 0, 0, 0, 0, 0, 0, 0, 0, 0, 0, 0, 0, 0, 0, 0, 0, 0, 0, 
[2024-06-13 12:18:03.586173] [0x0000007f98d14010] [LogDataTag] [0x00002ff1] [305] 1718295482836884, 0.748854, 0, 0, 0, 0, 0, 0, 0, 0, 0, 0, 0, 0, 1.8445e+13, 0.0831885, -0.183384, -0.312708, 0.998969, -0.00527393, -0.00386084, -0.0449287, -0.000885674, 0.00451387, 0.00115888, -0.00162204, -0.000797885, 0.000457573, -0.0101906, -0.00818771, -0.0898479, 0, 0, 0, 0, 0, 0, 0, 0, 0, 0, 0, 0, 0, 0, 0, 0, 0, 0, 0, 0, 0, 0, 0, 0, 0, 0, 0, 0, 0, 0, 0, 0, 0, 0, 0, 0, 0, 0, 0, 0, 0, 0, 0, 0, 0, 0, 0, 0, 0, 0, 0, 0, 0, 0, 0, 0, 0, 0, 0, 0, 0, 0, 0, 0, 0, 0, 0, 0, 0, 0, 0, 
[2024-06-13 12:18:03.596236] [0x0000007f98d14010] [LogDataTag] [0x00002ff1] [309] 1718295482836884, 0.758867, 0, 0, 0, 0, 0, 0, 0, 0, 0, 0, 0, 0, 1.8445e+13, 0.0831997, -0.183365, -0.312704, 0.998969, -0.00526158, -0.00388134, -0.0449299, -0.000916719, 0.00435364, 0.00130588, 0.00259243, -0.00322815, -0.00114639, -0.0101641, -0.00822758, -0.0898502, 0, 0, 0, 0, 0, 0, 0, 0, 0, 0, 0, 0, 0, 0, 0, 0, 0, 0, 0, 0, 0, 0, 0, 0, 0, 0, 0, 0, 0, 0, 0, 0, 0, 0, 0, 0, 0, 0, 0, 0, 0, 0, 0, 0, 0, 0, 0, 0, 0, 0, 0, 0, 0, 0, 0, 0, 0, 0, 0, 0, 0, 0, 0, 0, 0, 0, 0, 0, 0, 0, 0, 
[2024-06-13 12:18:03.606236] [0x0000007f98d14010] [LogDataTag] [0x00002ff1] [313] 1718295482836884, 0.768876, 0, 0, 0, 0, 0, 0, 0, 0, 0, 0, 0, 0, 1.8445e+13, 0.0831997, -0.183365, -0.312704, 0.998969, -0.00526158, -0.00388134, -0.0449299, -0.000916719, 0.00435364, 0.00130588, 0.00259243, -0.00322815, -0.00114639, -0.0101641, -0.00822758, -0.0898502, 0, 0, 0, 0, 0, 0, 0, 0, 0, 0, 0, 0, 0, 0, 0, 0, 0, 0, 0, 0, 0, 0, 0, 0, 0, 0, 0, 0, 0, 0, 0, 0, 0, 0, 0, 0, 0, 0, 0, 0, 0, 0, 0, 0, 0, 0, 0, 0, 0, 0, 0, 0, 0, 0, 0, 0, 0, 0, 0, 0, 0, 0, 0, 0, 0, 0, 0, 0, 0, 0, 0, 
[2024-06-13 12:18:03.616223] [0x0000007f91db89a0] [LogDataTag] [0x00002ff1] [317] 1718295482836884, 0.778873, 0, 0, 0, 0, 0, 0, 0, 0, 0, 0, 0, 0, 1.8445e+13, 0.0832113, -0.183348, -0.312699, 0.998969, -0.0052536, -0.00388044, -0.0449369, -0.00079558, 0.00425129, 0.0011451, 0.00440398, -6.28984e-05, -1.8239e-05, -0.0101481, -0.00822513, -0.0898643, 0, 0, 0, 0, 0, 0, 0, 0, 0, 0, 0, 0, 0, 0, 0, 0, 0, 0, 0, 0, 0, 0, 0, 0, 0, 0, 0, 0, 0, 0, 0, 0, 0, 0, 0, 0, 0, 0, 0, 0, 0, 0, 0, 0, 0, 0, 0, 0, 0, 0, 0, 0, 0, 0, 0, 0, 0, 0, 0, 0, 0, 0, 0, 0, 0, 0, 0, 0, 0, 0, 0, 
[2024-06-13 12:18:03.626181] [0x0000007f915b79a0] [LogDataTag] [0x00002ff1] [322] 1718295482836884, 0.788845, 0, 0, 0, 0, 0, 0, 0, 0, 0, 0, 0, 0, 1.8445e+13, 0.0832247, -0.183334, -0.312696, 0.998967, -0.0052415, -0.00388078, -0.0449647, -0.000665699, 0.00427738, 0.00125473, 0.00417192, -0.00106985, 0.00251069, -0.0101237, -0.008225, -0.0899201, 0, 0, 0, 0, 0, 0, 0, 0, 0, 0, 0, 0, 0, 0, 0, 0, 0, 0, 0, 0, 0, 0, 0, 0, 0, 0, 0, 0, 0, 0, 0, 0, 0, 0, 0, 0, 0, 0, 0, 0, 0, 0, 0, 0, 0, 0, 0, 0, 0, 0, 0, 0, 0, 0, 0, 0, 0, 0, 0, 0, 0, 0, 0, 0, 0, 0, 0, 0, 0, 0, 0, 
[2024-06-13 12:18:03.636160] [0x0000007f925b99a0] [LogDataTag] [0x00002ff1] [326] 1718295482836884, 0.798829, 0, 0, 0, 0, 0, 0, 0, 0, 0, 0, 0, 0, 1.8445e+13, 0.083239, -0.183322, -0.312691, 0.998967, -0.00525226, -0.00387896, -0.0449732, -0.000577856, 0.00417705, 0.00153079, 0.000690102, -0.00145099, -0.00188497, -0.0101453, -0.00822241, -0.089937, 0, 0, 0, 0, 0, 0, 0, 0, 0, 0, 0, 0, 0, 0, 0, 0, 0, 0, 0, 0, 0, 0, 0, 0, 0, 0, 0, 0, 0, 0, 0, 0, 0, 0, 0, 0, 0, 0, 0, 0, 0, 0, 0, 0, 0, 0, 0, 0, 0, 0, 0, 0, 0, 0, 0, 0, 0, 0, 0, 0, 0, 0, 0, 0, 0, 0, 0, 0, 0, 0, 0, 
[2024-06-13 12:18:03.646250] [0x0000007f915b79a0] [LogDataTag] [0x00002ff1] [330] 1718295482836884, 0.808879, 0, 0, 0, 0, 0, 0, 0, 0, 0, 0, 0, 0, 1.8445e+13, 0.0832691, -0.183296, -0.312679, 0.998967, -0.00527076, -0.00390527, -0.0449606, -8.69372e-05, 0.00410309, 0.00149793, -0.00498064, -0.00825069, 0.0050058, -0.01018, -0.00827652, -0.0899112, 0, 0, 0, 0, 0, 0, 0, 0, 0, 0, 0, 0, 0, 0, 0, 0, 0, 0, 0, 0, 0, 0, 0, 0, 0, 0, 0, 0, 0, 0, 0, 0, 0, 0, 0, 0, 0, 0, 0, 0, 0, 0, 0, 0, 0, 0, 0, 0, 0, 0, 0, 0, 0, 0, 0, 0, 0, 0, 0, 0, 0, 0, 0, 0, 0, 0, 0, 0, 0, 0, 0, 
[2024-06-13 12:18:03.656221] [0x0000007f915b79a0] [LogDataTag] [0x00002ff1] [335] 1718295482836884, 0.818869, 0, 0, 0, 0, 0, 0, 0, 0, 0, 0, 0, 0, 1.8445e+13, 0.0832691, -0.183296, -0.312679, 0.998967, -0.00527076, -0.00390527, -0.0449606, -8.69372e-05, 0.00410309, 0.00149793, -0.00498064, -0.00825069, 0.0050058, -0.01018, -0.00827652, -0.0899112, 0, 0, 0, 0, 0, 0, 0, 0, 0, 0, 0, 0, 0, 0, 0, 0, 0, 0, 0, 0, 0, 0, 0, 0, 0, 0, 0, 0, 0, 0, 0, 0, 0, 0, 0, 0, 0, 0, 0, 0, 0, 0, 0, 0, 0, 0, 0, 0, 0, 0, 0, 0, 0, 0, 0, 0, 0, 0, 0, 0, 0, 0, 0, 0, 0, 0, 0, 0, 0, 0, 0, 
[2024-06-13 12:18:03.666220] [0x0000007f91db89a0] [LogDataTag] [0x00002ff1] [339] 1718295482836884, 0.828858, 0, 0, 0, 0, 0, 0, 0, 0, 0, 0, 0, 0, 1.8445e+13, 0.0833068, -0.183281, -0.312669, 0.998968, -0.00527634, -0.00389129, -0.0449541, 0.000213474, 0.00389992, 0.00166128, -0.00198686, 0.00525136, 0.00327352, -0.0101924, -0.00824902, -0.0898985, 0, 0, 0, 0, 0, 0, 0, 0, 0, 0, 0, 0, 0, 0, 0, 0, 0, 0, 0, 0, 0, 0, 0, 0, 0, 0, 0, 0, 0, 0, 0, 0, 0, 0, 0, 0, 0, 0, 0, 0, 0, 0, 0, 0, 0, 0, 0, 0, 0, 0, 0, 0, 0, 0, 0, 0, 0, 0, 0, 0, 0, 0, 0, 0, 0, 0, 0, 0, 0, 0, 0, 
[2024-06-13 12:18:03.676568] [0x0000007f91db89a0] [LogDataTag] [0x00002ff1] [344] 1718295482836884, 0.839257, 0, 0, 0, 0, 0, 0, 0, 0, 0, 0, 0, 0, 1.8445e+13, 0.0833068, -0.183281, -0.312669, 0.998968, -0.00527634, -0.00389129, -0.0449541, 0.000213474, 0.00389992, 0.00166128, -0.00198686, 0.00525136, 0.00327352, -0.0101924, -0.00824902, -0.0898985, 0, 0, 0, 0, 0, 0, 0, 0, 0, 0, 0, 0, 0, 0, 0, 0, 0, 0, 0, 0, 0, 0, 0, 0, 0, 0, 0, 0, 0, 0, 0, 0, 0, 0, 0, 0, 0, 0, 0, 0, 0, 0, 0, 0, 0, 0, 0, 0, 0, 0, 0, 0, 0, 0, 0, 0, 0, 0, 0, 0, 0, 0, 0, 0, 0, 0, 0, 0, 0, 0, 0, 
[2024-06-13 12:18:03.686216] [0x0000007f98d14010] [LogDataTag] [0x00002ff1] [348] 1718295482836884, 0.84887, 0, 0, 0, 0, 0, 0, 0, 0, 0, 0, 0, 0, 1.8445e+13, 0.083349, -0.18327, -0.312655, 0.998966, -0.00529627, -0.00390394, -0.0449887, 0.000446641, 0.00373212, 0.00171358, 0.00176158, 0.00892975, -0.000620666, -0.0102309, -0.00827644, -0.0899673, 0, 0, 0, 0, 0, 0, 0, 0, 0, 0, 0, 0, 0, 0, 0, 0, 0, 0, 0, 0, 0, 0, 0, 0, 0, 0, 0, 0, 0, 0, 0, 0, 0, 0, 0, 0, 0, 0, 0, 0, 0, 0, 0, 0, 0, 0, 0, 0, 0, 0, 0, 0, 0, 0, 0, 0, 0, 0, 0, 0, 0, 0, 0, 0, 0, 0, 0, 0, 0, 0, 0, 
[2024-06-13 12:18:03.696235] [0x0000007f915b79a0] [LogDataTag] [0x00002ff1] [352] 1718295482836884, 0.858894, 0, 0, 0, 0, 0, 0, 0, 0, 0, 0, 0, 0, 1.8445e+13, 0.0833693, -0.183265, -0.312649, 0.998965, -0.00530285, -0.00391567, -0.0449986, 0.000424259, 0.00363998, 0.00143184, -0.000778122, -0.000912303, -0.00373158, -0.0102429, -0.00830057, -0.0899871, 0, 0, 0, 0, 0, 0, 0, 0, 0, 0, 0, 0, 0, 0, 0, 0, 0, 0, 0, 0, 0, 0, 0, 0, 0, 0, 0, 0, 0, 0, 0, 0, 0, 0, 0, 0, 0, 0, 0, 0, 0, 0, 0, 0, 0, 0, 0, 0, 0, 0, 0, 0, 0, 0, 0, 0, 0, 0, 0, 0, 0, 0, 0, 0, 0, 0, 0, 0, 0, 0, 0, 
[2024-06-13 12:18:03.706194] [0x0000007f925b99a0] [LogDataTag] [0x00002ff1] [357] 1718295482836884, 0.868842, 0, 0, 0, 0, 0, 0, 0, 0, 0, 0, 0, 0, 1.8445e+13, 0.0833911, -0.183263, -0.312647, 0.998965, -0.00530758, -0.00391875, -0.0450058, 0.000658312, 0.00362844, 0.00113306, -0.000580144, 0.00494821, 0.00389248, -0.010252, -0.00830723, -0.0900014, 0, 0, 0, 0, 0, 0, 0, 0, 0, 0, 0, 0, 0, 0, 0, 0, 0, 0, 0, 0, 0, 0, 0, 0, 0, 0, 0, 0, 0, 0, 0, 0, 0, 0, 0, 0, 0, 0, 0, 0, 0, 0, 0, 0, 0, 0, 0, 0, 0, 0, 0, 0, 0, 0, 0, 0, 0, 0, 0, 0, 0, 0, 0, 0, 0, 0, 0, 0, 0, 0, 0, 
[2024-06-13 12:18:03.716469] [0x0000007f91db89a0] [LogDataTag] [0x00002ff1] [362] 1718295482836884, 0.879151, 0, 0, 0, 0, 0, 0, 0, 0, 0, 0, 0, 0, 1.8445e+13, 0.0834139, -0.183264, -0.312646, 0.998964, -0.00533071, -0.00391037, -0.0450284, 0.000631817, 0.00347557, 0.00122112, -0.00499449, 0.00708712, -0.00897825, -0.0102988, -0.00829279, -0.0900465, 0, 0, 0, 0, 0, 0, 0, 0, 0, 0, 0, 0, 0, 0, 0, 0, 0, 0, 0, 0, 0, 0, 0, 0, 0, 0, 0, 0, 0, 0, 0, 0, 0, 0, 0, 0, 0, 0, 0, 0, 0, 0, 0, 0, 0, 0, 0, 0, 0, 0, 0, 0, 0, 0, 0, 0, 0, 0, 0, 0, 0, 0, 0, 0, 0, 0, 0, 0, 0, 0, 0, 
[2024-06-13 12:18:03.726505] [0x0000007f98d14010] [LogDataTag] [0x00002ff1] [366] 1718295482836884, 0.889166, 0, 0, 0, 0, 0, 0, 0, 0, 0, 0, 0, 0, 1.8445e+13, 0.0834364, -0.183268, -0.312644, 0.998965, -0.00533372, -0.00391433, -0.045001, 0.000625977, 0.00333175, 0.00126092, 0.00630125, -0.000223935, 0.00379668, -0.0103046, -0.00830071, -0.0899916, 0, 0, 0, 0, 0, 0, 0, 0, 0, 0, 0, 0, 0, 0, 0, 0, 0, 0, 0, 0, 0, 0, 0, 0, 0, 0, 0, 0, 0, 0, 0, 0, 0, 0, 0, 0, 0, 0, 0, 0, 0, 0, 0, 0, 0, 0, 0, 0, 0, 0, 0, 0, 0, 0, 0, 0, 0, 0, 0, 0, 0, 0, 0, 0, 0, 0, 0, 0, 0, 0, 0, 
[2024-06-13 12:18:03.736672] [0x0000007f915b79a0] [LogDataTag] [0x00002ff1] [370] 1718295482836884, 0.898885, 0, 0, 0, 0, 0, 0, 0, 0, 0, 0, 0, 0, 1.8445e+13, 0.0834582, -0.183272, -0.312643, 0.998966, -0.005331, -0.00391293, -0.0449879, 0.000527892, 0.00324274, 0.00115201, 0.00132289, -0.00617904, 0.00476528, -0.0102994, -0.00829751, -0.0899655, 0, 0, 0, 0, 0, 0, 0, 0, 0, 0, 0, 0, 0, 0, 0, 0, 0, 0, 0, 0, 0, 0, 0, 0, 0, 0, 0, 0, 0, 0, 0, 0, 0, 0, 0, 0, 0, 0, 0, 0, 0, 0, 0, 0, 0, 0, 0, 0, 0, 0, 0, 0, 0, 0, 0, 0, 0, 0, 0, 0, 0, 0, 0, 0, 0, 0, 0, 0, 0, 0, 0, 
[2024-06-13 12:18:03.746213] [0x0000007f91db89a0] [LogDataTag] [0x00002ff1] [375] 1718295482836884, 0.908884, 0, 0, 0, 0, 0, 0, 0, 0, 0, 0, 0, 0, 1.8445e+13, 0.0834986, -0.183286, -0.312646, 0.998966, -0.00533929, -0.00393182, -0.044986, 0.00034098, 0.0031041, 0.00104367, 0.000951541, -0.00310435, -0.00172049, -0.0103143, -0.008336, -0.0899613, 0, 0, 0, 0, 0, 0, 0, 0, 0, 0, 0, 0, 0, 0, 0, 0, 0, 0, 0, 0, 0, 0, 0, 0, 0, 0, 0, 0, 0, 0, 0, 0, 0, 0, 0, 0, 0, 0, 0, 0, 0, 0, 0, 0, 0, 0, 0, 0, 0, 0, 0, 0, 0, 0, 0, 0, 0, 0, 0, 0, 0, 0, 0, 0, 0, 0, 0, 0, 0, 0, 0, 
[2024-06-13 12:18:03.756221] [0x0000007f91db89a0] [LogDataTag] [0x00002ff1] [379] 1718295482836884, 0.918872, 0, 0, 0, 0, 0, 0, 0, 0, 0, 0, 0, 0, 1.8445e+13, 0.0834986, -0.183286, -0.312646, 0.998966, -0.00533929, -0.00393182, -0.044986, 0.00034098, 0.0031041, 0.00104367, 0.000951541, -0.00310435, -0.00172049, -0.0103143, -0.008336, -0.0899613, 0, 0, 0, 0, 0, 0, 0, 0, 0, 0, 0, 0, 0, 0, 0, 0, 0, 0, 0, 0, 0, 0, 0, 0, 0, 0, 0, 0, 0, 0, 0, 0, 0, 0, 0, 0, 0, 0, 0, 0, 0, 0, 0, 0, 0, 0, 0, 0, 0, 0, 0, 0, 0, 0, 0, 0, 0, 0, 0, 0, 0, 0, 0, 0, 0, 0, 0, 0, 0, 0, 0, 
[2024-06-13 12:18:03.766161] [0x0000007f98d14010] [LogDataTag] [0x00002ff1] [384] 1718295482836884, 0.928832, 0, 0, 0, 0, 0, 0, 0, 0, 0, 0, 0, 0, 1.8445e+13, 0.0835539, -0.183315, -0.312647, 0.998965, -0.00536562, -0.00395193, -0.0450008, 0.000419624, 0.00286066, 0.00132219, -0.00386635, -0.00233625, 0.00119251, -0.010365, -0.00837868, -0.0899905, 0, 0, 0, 0, 0, 0, 0, 0, 0, 0, 0, 0, 0, 0, 0, 0, 0, 0, 0, 0, 0, 0, 0, 0, 0, 0, 0, 0, 0, 0, 0, 0, 0, 0, 0, 0, 0, 0, 0, 0, 0, 0, 0, 0, 0, 0, 0, 0, 0, 0, 0, 0, 0, 0, 0, 0, 0, 0, 0, 0, 0, 0, 0, 0, 0, 0, 0, 0, 0, 0, 0, 
[2024-06-13 12:18:03.776217] [0x0000007f91db89a0] [LogDataTag] [0x00002ff1] [388] 1718295482836884, 0.938879, 0, 0, 0, 0, 0, 0, 0, 0, 0, 0, 0, 0, 1.8445e+13, 0.0835713, -0.183327, -0.312647, 0.998965, -0.00536689, -0.00395466, -0.0450007, 0.000381137, 0.00268171, 0.00109119, 0.00126342, -0.0113659, 0.00447981, -0.0103673, -0.00838425, -0.0899904, 0, 0, 0, 0, 0, 0, 0, 0, 0, 0, 0, 0, 0, 0, 0, 0, 0, 0, 0, 0, 0, 0, 0, 0, 0, 0, 0, 0, 0, 0, 0, 0, 0, 0, 0, 0, 0, 0, 0, 0, 0, 0, 0, 0, 0, 0, 0, 0, 0, 0, 0, 0, 0, 0, 0, 0, 0, 0, 0, 0, 0, 0, 0, 0, 0, 0, 0, 0, 0, 0, 0, 
[2024-06-13 12:18:03.786179] [0x0000007f91db89a0] [LogDataTag] [0x00002ff1] [393] 1718295482836884, 0.948872, 0, 0, 0, 0, 0, 0, 0, 0, 0, 0, 0, 0, 1.8445e+13, 0.0835713, -0.183327, -0.312647, 0.998965, -0.00536689, -0.00395466, -0.0450007, 0.000381137, 0.00268171, 0.00109119, 0.00126342, -0.0113659, 0.00447981, -0.0103673, -0.00838425, -0.0899904, 0, 0, 0, 0, 0, 0, 0, 0, 0, 0, 0, 0, 0, 0, 0, 0, 0, 0, 0, 0, 0, 0, 0, 0, 0, 0, 0, 0, 0, 0, 0, 0, 0, 0, 0, 0, 0, 0, 0, 0, 0, 0, 0, 0, 0, 0, 0, 0, 0, 0, 0, 0, 0, 0, 0, 0, 0, 0, 0, 0, 0, 0, 0, 0, 0, 0, 0, 0, 0, 0, 0, 
[2024-06-13 12:18:03.796190] [0x0000007f98d14010] [LogDataTag] [0x00002ff1] [397] 1718295482836884, 0.958856, 0, 0, 0, 0, 0, 0, 0, 0, 0, 0, 0, 0, 1.8445e+13, 0.0835882, -0.183342, -0.312647, 0.998965, -0.00536264, -0.00395706, -0.0450003, 0.000346727, 0.00256932, 0.00126039, 0.00490795, -0.00131142, -0.00190937, -0.0103586, -0.00838867, -0.0899895, 0, 0, 0, 0, 0, 0, 0, 0, 0, 0, 0, 0, 0, 0, 0, 0, 0, 0, 0, 0, 0, 0, 0, 0, 0, 0, 0, 0, 0, 0, 0, 0, 0, 0, 0, 0, 0, 0, 0, 0, 0, 0, 0, 0, 0, 0, 0, 0, 0, 0, 0, 0, 0, 0, 0, 0, 0, 0, 0, 0, 0, 0, 0, 0, 0, 0, 0, 0, 0, 0, 0, 
[2024-06-13 12:18:03.806285] [0x0000007f925b99a0] [LogDataTag] [0x00002ff1] [401] 1718295482836884, 0.968857, 0, 0, 0, 0, 0, 0, 0, 0, 0, 0, 0, 0, 1.8445e+13, 0.083605, -0.18336, -0.312647, 0.998965, -0.00536764, -0.00397003, -0.0449971, 0.000423274, 0.0024779, 0.00127034, 0.00332376, 0.00250222, 0.00521289, -0.0103674, -0.008415, -0.089983, 0, 0, 0, 0, 0, 0, 0, 0, 0, 0, 0, 0, 0, 0, 0, 0, 0, 0, 0, 0, 0, 0, 0, 0, 0, 0, 0, 0, 0, 0, 0, 0, 0, 0, 0, 0, 0, 0, 0, 0, 0, 0, 0, 0, 0, 0, 0, 0, 0, 0, 0, 0, 0, 0, 0, 0, 0, 0, 0, 0, 0, 0, 0, 0, 0, 0, 0, 0, 0, 0, 0, 
[2024-06-13 12:18:03.816202] [0x0000007f98d14010] [LogDataTag] [0x00002ff1] [406] 1718295482836884, 0.97885, 0, 0, 0, 0, 0, 0, 0, 0, 0, 0, 0, 0, 1.8445e+13, 0.0836396, -0.1834, -0.312646, 0.998964, -0.00540002, -0.00395604, -0.0450097, 0.000646701, 0.00315846, 0.00134697, -0.00895726, -0.00444568, -0.00308281, -0.0104333, -0.00839008, -0.0900081, 0, 0, 0, 0, 0, 0, 0, 0, 0, 0, 0, 0, 0, 0, 0, 0, 0, 0, 0, 0, 0, 0, 0, 0, 0, 0, 0, 0, 0, 0, 0, 0, 0, 0, 0, 0, 0, 0, 0, 0, 0, 0, 0, 0, 0, 0, 0, 0, 0, 0, 0, 0, 0, 0, 0, 0, 0, 0, 0, 0, 0, 0, 0, 0, 0, 0, 0, 0, 0, 0, 0, 
[2024-06-13 12:18:03.826218] [0x0000007f98d14010] [LogDataTag] [0x00002ff1] [410] 1718295482836884, 0.98887, 0, 0, 0, 0, 0, 0, 0, 0, 0, 0, 0, 0, 1.8445e+13, 0.0836396, -0.1834, -0.312646, 0.998964, -0.00540002, -0.00395604, -0.0450097, 0.000646701, 0.00315846, 0.00134697, -0.00895726, -0.00444568, -0.00308281, -0.0104333, -0.00839008, -0.0900081, 0, 0, 0, 0, 0, 0, 0, 0, 0, 0, 0, 0, 0, 0, 0, 0, 0, 0, 0, 0, 0, 0, 0, 0, 0, 0, 0, 0, 0, 0, 0, 0, 0, 0, 0, 0, 0, 0, 0, 0, 0, 0, 0, 0, 0, 0, 0, 0, 0, 0, 0, 0, 0, 0, 0, 0, 0, 0, 0, 0, 0, 0, 0, 0, 0, 0, 0, 0, 0, 0, 0, 
[2024-06-13 12:18:03.836183] [0x0000007f91db89a0] [LogDataTag] [0x00002ff1] [414] 1718295482836884, 0.998792, 0, 0, 0, 0, 0, 0, 0, 0, 0, 0, 0, 0, 1.8445e+13, 0.0836737, -0.183451, -0.312646, 0.998964, -0.00538637, -0.00394096, -0.045005, 0.000724318, 0.000558217, 0.000855125, -0.0020733, 0.00232442, -0.0164592, -0.0104074, -0.00835867, -0.0899988, 0, 0, 0, 0, 0, 0, 0, 0, 0, 0, 0, 0, 0, 0, 0, 0, 0, 0, 0, 0, 0, 0, 0, 0, 0, 0, 0, 0, 0, 0, 0, 0, 0, 0, 0, 0, 0, 0, 0, 0, 0, 0, 0, 0, 0, 0, 0, 0, 0, 0, 0, 0, 0, 0, 0, 0, 0, 0, 0, 0, 0, 0, 0, 0, 0, 0, 0, 0, 0, 0, 0, 
[2024-06-13 12:18:03.846220] [0x0000007f98d14010] [LogDataTag] [0x00002ff1] [419] 1718295482836884, 1.00885, 0, 0, 0, 0, 0, 0, 0, 0, 0, 0, 0, 0, 1.8445e+13, 0.0836899, -0.183491, -0.312649, 0.998959, -0.00541196, -0.00393077, -0.0451282, 0.000222727, 0.000224285, 0.000893308, -0.0040609, 0.00753473, -0.0309219, -0.0104584, -0.00834192, -0.0902454, 0, 0, 0, 0, 0, 0, 0, 0, 0, 0, 0, 0, 0, 0, 0, 0, 0, 0, 0, 0, 0, 0, 0, 0, 0, 0, 0, 0, 0, 0, 0, 0, 0, 0, 0, 0, 0, 0, 0, 0, 0, 0, 0, 0, 0, 0, 0, 0, 0, 0, 0, 0, 0, 0, 0, 0, 0, 0, 0, 0, 0, 0, 0, 0, 0, 0, 0, 0, 0, 0, 0, 
[2024-06-13 12:18:03.856220] [0x0000007f98d14010] [LogDataTag] [0x00002ff1] [423] 1718295482836884, 1.01888, 0, 0, 0, 0, 0, 0, 0, 0, 0, 0, 0, 0, 1.8445e+13, 0.0836899, -0.183491, -0.312649, 0.998959, -0.00541196, -0.00393077, -0.0451282, 0.000222727, 0.000224285, 0.000893308, -0.0040609, 0.00753473, -0.0309219, -0.0104584, -0.00834192, -0.0902454, 0, 0, 0, 0, 0, 0, 0, 0, 0, 0, 0, 0, 0, 0, 0, 0, 0, 0, 0, 0, 0, 0, 0, 0, 0, 0, 0, 0, 0, 0, 0, 0, 0, 0, 0, 0, 0, 0, 0, 0, 0, 0, 0, 0, 0, 0, 0, 0, 0, 0, 0, 0, 0, 0, 0, 0, 0, 0, 0, 0, 0, 0, 0, 0, 0, 0, 0, 0, 0, 0, 0, 
[2024-06-13 12:18:03.866212] [0x0000007f915b79a0] [LogDataTag] [0x00002ff1] [428] 1718295482836884, 1.02886, 0, 0, 0, 0, 0, 0, 0, 0, 0, 0, 0, 0, 1.8445e+13, 0.0837296, -0.183546, -0.312646, 0.998961, -0.00541862, -0.00392642, -0.045079, 0.000418204, 0.00430029, 0.00161722, 0.00929079, 0.00304718, 0.0267765, -0.0104725, -0.00833331, -0.0901469, 0, 0, 0, 0, 0, 0, 0, 0, 0, 0, 0, 0, 0, 0, 0, 0, 0, 0, 0, 0, 0, 0, 0, 0, 0, 0, 0, 0, 0, 0, 0, 0, 0, 0, 0, 0, 0, 0, 0, 0, 0, 0, 0, 0, 0, 0, 0, 0, 0, 0, 0, 0, 0, 0, 0, 0, 0, 0, 0, 0, 0, 0, 0, 0, 0, 0, 0, 0, 0, 0, 0, 
[2024-06-13 12:18:03.876213] [0x0000007f915b79a0] [LogDataTag] [0x00002ff1] [432] 1718295482836884, 1.03887, 0, 0, 0, 0, 0, 0, 0, 0, 0, 0, 0, 0, 1.8445e+13, 0.0837296, -0.183546, -0.312646, 0.998961, -0.00541862, -0.00392642, -0.045079, 0.000418204, 0.00430029, 0.00161722, 0.00929079, 0.00304718, 0.0267765, -0.0104725, -0.00833331, -0.0901469, 0, 0, 0, 0, 0, 0, 0, 0, 0, 0, 0, 0, 0, 0, 0, 0, 0, 0, 0, 0, 0, 0, 0, 0, 0, 0, 0, 0, 0, 0, 0, 0, 0, 0, 0, 0, 0, 0, 0, 0, 0, 0, 0, 0, 0, 0, 0, 0, 0, 0, 0, 0, 0, 0, 0, 0, 0, 0, 0, 0, 0, 0, 0, 0, 0, 0, 0, 0, 0, 0, 0, 
[2024-06-13 12:18:03.886212] [0x0000007f915b79a0] [LogDataTag] [0x00002ff1] [436] 1718295482836884, 1.04886, 0, 0, 0, 0, 0, 0, 0, 0, 0, 0, 0, 0, 1.8445e+13, 0.0837296, -0.183546, -0.312646, 0.998961, -0.00541862, -0.00392642, -0.045079, 0.000418204, 0.00430029, 0.00161722, 0.00929079, 0.00304718, 0.0267765, -0.0104725, -0.00833331, -0.0901469, 0, 0, 0, 0, 0, 0, 0, 0, 0, 0, 0, 0, 0, 0, 0, 0, 0, 0, 0, 0, 0, 0, 0, 0, 0, 0, 0, 0, 0, 0, 0, 0, 0, 0, 0, 0, 0, 0, 0, 0, 0, 0, 0, 0, 0, 0, 0, 0, 0, 0, 0, 0, 0, 0, 0, 0, 0, 0, 0, 0, 0, 0, 0, 0, 0, 0, 0, 0, 0, 0, 0, 
[2024-06-13 12:18:03.896200] [0x0000007f925b99a0] [LogDataTag] [0x00002ff1] [441] 1718295482836884, 1.05885, 0, 0, 0, 0, 0, 0, 0, 0, 0, 0, 0, 0, 1.8445e+13, 0.0837428, -0.18355, -0.312643, 0.998968, -0.00543054, -0.00391332, -0.0449292, 0.000470142, 0.00393107, 0.0019171, 0.00720313, 0.00116221, 0.0334543, -0.0104988, -0.00830664, -0.089847, 0, 0, 0, 0, 0, 0, 0, 0, 0, 0, 0, 0, 0, 0, 0, 0, 0, 0, 0, 0, 0, 0, 0, 0, 0, 0, 0, 0, 0, 0, 0, 0, 0, 0, 0, 0, 0, 0, 0, 0, 0, 0, 0, 0, 0, 0, 0, 0, 0, 0, 0, 0, 0, 0, 0, 0, 0, 0, 0, 0, 0, 0, 0, 0, 0, 0, 0, 0, 0, 0, 0, 
[2024-06-13 12:18:03.906347] [0x0000007f91db89a0] [LogDataTag] [0x00002ff1] [445] 1718295482836884, 1.0689, 0, 0, 0, 0, 0, 0, 0, 0, 0, 0, 0, 0, 1.8445e+13, 0.0837685, -0.183619, -0.312615, 0.998962, -0.00541819, -0.00389016, -0.0450554, -9.6881e-05, 0.00112167, 0.00268475, 0.00223947, -0.00258921, -0.0376961, -0.0104751, -0.00826057, -0.0901, 0, 0, 0, 0, 0, 0, 0, 0, 0, 0, 0, 0, 0, 0, 0, 0, 0, 0, 0, 0, 0, 0, 0, 0, 0, 0, 0, 0, 0, 0, 0, 0, 0, 0, 0, 0, 0, 0, 0, 0, 0, 0, 0, 0, 0, 0, 0, 0, 0, 0, 0, 0, 0, 0, 0, 0, 0, 0, 0, 0, 0, 0, 0, 0, 0, 0, 0, 0, 0, 0, 0, 
[2024-06-13 12:18:03.916239] [0x0000007f98d14010] [LogDataTag] [0x00002ff1] [449] 1718295482836884, 1.07888, 0, 0, 0, 0, 0, 0, 0, 0, 0, 0, 0, 0, 1.8445e+13, 0.0837756, -0.183648, -0.312602, 0.998958, -0.00544489, -0.00391194, -0.0451555, 0.000284922, 0.0022109, 0.00290553, -0.00314112, -0.00422616, -0.0232965, -0.0105257, -0.00830755, -0.0903, 0, 0, 0, 0, 0, 0, 0, 0, 0, 0, 0, 0, 0, 0, 0, 0, 0, 0, 0, 0, 0, 0, 0, 0, 0, 0, 0, 0, 0, 0, 0, 0, 0, 0, 0, 0, 0, 0, 0, 0, 0, 0, 0, 0, 0, 0, 0, 0, 0, 0, 0, 0, 0, 0, 0, 0, 0, 0, 0, 0, 0, 0, 0, 0, 0, 0, 0, 0, 0, 0, 0, 
[2024-06-13 12:18:03.926203] [0x0000007f925b99a0] [LogDataTag] [0x00002ff1] [454] 1718295482836884, 1.08886, 0, 0, 0, 0, 0, 0, 0, 0, 0, 0, 0, 0, 1.8445e+13, 0.0837829, -0.183661, -0.312593, 0.998958, -0.0054311, -0.00393008, -0.0451502, 5.99399e-05, 0.00387962, 0.0020927, 0.00910367, -0.00145035, 0.00963437, -0.0104966, -0.0083425, -0.0902894, 0, 0, 0, 0, 0, 0, 0, 0, 0, 0, 0, 0, 0, 0, 0, 0, 0, 0, 0, 0, 0, 0, 0, 0, 0, 0, 0, 0, 0, 0, 0, 0, 0, 0, 0, 0, 0, 0, 0, 0, 0, 0, 0, 0, 0, 0, 0, 0, 0, 0, 0, 0, 0, 0, 0, 0, 0, 0, 0, 0, 0, 0, 0, 0, 0, 0, 0, 0, 0, 0, 0, 
[2024-06-13 12:18:03.936147] [0x0000007f915b79a0] [LogDataTag] [0x00002ff1] [459] 1718295482836884, 1.09886, 0, 0, 0, 0, 0, 0, 0, 0, 0, 0, 0, 0, 1.8445e+13, 0.0837875, -0.183665, -0.31259, 0.998962, -0.00543282, -0.0039094, -0.0450521, -3.65343e-07, 0.00407206, 0.00170019, -0.000136499, 0.00275626, 0.0216508, -0.0105027, -0.00830031, -0.0900932, 0, 0, 0, 0, 0, 0, 0, 0, 0, 0, 0, 0, 0, 0, 0, 0, 0, 0, 0, 0, 0, 0, 0, 0, 0, 0, 0, 0, 0, 0, 0, 0, 0, 0, 0, 0, 0, 0, 0, 0, 0, 0, 0, 0, 0, 0, 0, 0, 0, 0, 0, 0, 0, 0, 0, 0, 0, 0, 0, 0, 0, 0, 0, 0, 0, 0, 0, 0, 0, 0, 0, 
[2024-06-13 12:18:03.946267] [0x0000007f91db89a0] [LogDataTag] [0x00002ff1] [463] 1718295482836884, 1.10889, 0, 0, 0, 0, 0, 0, 0, 0, 0, 0, 0, 0, 1.8445e+13, 0.0837917, -0.183669, -0.312587, 0.998966, -0.00541783, -0.00389444, -0.0449732, -0.000104691, 0.00340002, 0.00126039, -0.000856756, 0.00410441, 0.0157357, -0.0104747, -0.00826823, -0.0899355, 0, 0, 0, 0, 0, 0, 0, 0, 0, 0, 0, 0, 0, 0, 0, 0, 0, 0, 0, 0, 0, 0, 0, 0, 0, 0, 0, 0, 0, 0, 0, 0, 0, 0, 0, 0, 0, 0, 0, 0, 0, 0, 0, 0, 0, 0, 0, 0, 0, 0, 0, 0, 0, 0, 0, 0, 0, 0, 0, 0, 0, 0, 0, 0, 0, 0, 0, 0, 0, 0, 0, 
[2024-06-13 12:18:03.956246] [0x0000007f98d14010] [LogDataTag] [0x00002ff1] [468] 1718295482836884, 1.11889, 0, 0, 0, 0, 0, 0, 0, 0, 0, 0, 0, 0, 1.8445e+13, 0.0837925, -0.183683, -0.312588, 0.998968, -0.00540982, -0.00388635, -0.044935, -0.000353551, 0.00220443, 0.00157502, -0.00334886, 0.00524387, -0.00171975, -0.0104597, -0.00825095, -0.0898591, 0, 0, 0, 0, 0, 0, 0, 0, 0, 0, 0, 0, 0, 0, 0, 0, 0, 0, 0, 0, 0, 0, 0, 0, 0, 0, 0, 0, 0, 0, 0, 0, 0, 0, 0, 0, 0, 0, 0, 0, 0, 0, 0, 0, 0, 0, 0, 0, 0, 0, 0, 0, 0, 0, 0, 0, 0, 0, 0, 0, 0, 0, 0, 0, 0, 0, 0, 0, 0, 0, 0, 
[2024-06-13 12:18:03.966275] [0x0000007f98d14010] [LogDataTag] [0x00002ff1] [472] 1718295482836884, 1.12889, 0, 0, 0, 0, 0, 0, 0, 0, 0, 0, 0, 0, 1.8445e+13, 0.0837925, -0.183683, -0.312588, 0.998968, -0.00540982, -0.00388635, -0.044935, -0.000353551, 0.00220443, 0.00157502, -0.00334886, 0.00524387, -0.00171975, -0.0104597, -0.00825095, -0.0898591, 0, 0, 0, 0, 0, 0, 0, 0, 0, 0, 0, 0, 0, 0, 0, 0, 0, 0, 0, 0, 0, 0, 0, 0, 0, 0, 0, 0, 0, 0, 0, 0, 0, 0, 0, 0, 0, 0, 0, 0, 0, 0, 0, 0, 0, 0, 0, 0, 0, 0, 0, 0, 0, 0, 0, 0, 0, 0, 0, 0, 0, 0, 0, 0, 0, 0, 0, 0, 0, 0, 0, 
[2024-06-13 12:18:03.976366] [0x0000007f915b79a0] [LogDataTag] [0x00002ff1] [477] 1718295482836884, 1.13888, 0, 0, 0, 0, 0, 0, 0, 0, 0, 0, 0, 0, 1.8445e+13, 0.0837883, -0.183759, -0.312563, 0.998956, -0.0053905, -0.00396526, -0.0451886, 2.52125e-05, 0.00234443, 0.00270808, -0.0010964, -0.00792165, -0.0207538, -0.0104119, -0.00840952, -0.0903662, 0, 0, 0, 0, 0, 0, 0, 0, 0, 0, 0, 0, 0, 0, 0, 0, 0, 0, 0, 0, 0, 0, 0, 0, 0, 0, 0, 0, 0, 0, 0, 0, 0, 0, 0, 0, 0, 0, 0, 0, 0, 0, 0, 0, 0, 0, 0, 0, 0, 0, 0, 0, 0, 0, 0, 0, 0, 0, 0, 0, 0, 0, 0, 0, 0, 0, 0, 0, 0, 0, 0, 
[2024-06-13 12:18:03.986157] [0x0000007f925b99a0] [LogDataTag] [0x00002ff1] [481] 1718295482836884, 1.1488, 0, 0, 0, 0, 0, 0, 0, 0, 0, 0, 0, 0, 1.8445e+13, 0.083789, -0.183768, -0.312552, 0.998956, -0.00537389, -0.0039442, -0.0451977, 6.23531e-05, 0.00374469, 0.00231262, 0.00568305, 0.00145335, 0.00438361, -0.0103806, -0.00836603, -0.0903848, 0, 0, 0, 0, 0, 0, 0, 0, 0, 0, 0, 0, 0, 0, 0, 0, 0, 0, 0, 0, 0, 0, 0, 0, 0, 0, 0, 0, 0, 0, 0, 0, 0, 0, 0, 0, 0, 0, 0, 0, 0, 0, 0, 0, 0, 0, 0, 0, 0, 0, 0, 0, 0, 0, 0, 0, 0, 0, 0, 0, 0, 0, 0, 0, 0, 0, 0, 0, 0, 0, 0, 
[2024-06-13 12:18:03.996139] [0x0000007f91db89a0] [LogDataTag] [0x00002ff1] [486] 1718295482836884, 1.15884, 0, 0, 0, 0, 0, 0, 0, 0, 0, 0, 0, 0, 1.8445e+13, 0.0837917, -0.183768, -0.312542, 0.998959, -0.00535462, -0.00392767, -0.0451393, 0.000355987, 0.00439785, 0.00260953, -0.000736267, 0.00268298, 0.0210503, -0.010344, -0.00833067, -0.0902683, 0, 0, 0, 0, 0, 0, 0, 0, 0, 0, 0, 0, 0, 0, 0, 0, 0, 0, 0, 0, 0, 0, 0, 0, 0, 0, 0, 0, 0, 0, 0, 0, 0, 0, 0, 0, 0, 0, 0, 0, 0, 0, 0, 0, 0, 0, 0, 0, 0, 0, 0, 0, 0, 0, 0, 0, 0, 0, 0, 0, 0, 0, 0, 0, 0, 0, 0, 0, 0, 0, 0, 
[2024-06-13 12:18:04.006222] [0x0000007f98d14010] [LogDataTag] [0x00002ff1] [490] 1718295482836884, 1.16885, 0, 0, 0, 0, 0, 0, 0, 0, 0, 0, 0, 0, 1.8445e+13, 0.0837947, -0.183764, -0.312531, 0.998963, -0.00535767, -0.00393444, -0.0450468, 0.000380263, 0.00453374, 0.00258268, -0.00448851, -0.000187481, 0.0205567, -0.0103503, -0.00834351, -0.0900829, 0, 0, 0, 0, 0, 0, 0, 0, 0, 0, 0, 0, 0, 0, 0, 0, 0, 0, 0, 0, 0, 0, 0, 0, 0, 0, 0, 0, 0, 0, 0, 0, 0, 0, 0, 0, 0, 0, 0, 0, 0, 0, 0, 0, 0, 0, 0, 0, 0, 0, 0, 0, 0, 0, 0, 0, 0, 0, 0, 0, 0, 0, 0, 0, 0, 0, 0, 0, 0, 0, 0, 
[2024-06-13 12:18:04.016173] [0x0000007f915b79a0] [LogDataTag] [0x00002ff1] [495] 1718295482836884, 1.17886, 0, 0, 0, 0, 0, 0, 0, 0, 0, 0, 0, 0, 1.8445e+13, 0.0837957, -0.183763, -0.31252, 0.998966, -0.00535304, -0.00391707, -0.0449738, 0.000261978, 0.00359622, 0.00289637, -0.00548803, 0.00063066, 0.0147175, -0.0103432, -0.00830762, -0.0899369, 0, 0, 0, 0, 0, 0, 0, 0, 0, 0, 0, 0, 0, 0, 0, 0, 0, 0, 0, 0, 0, 0, 0, 0, 0, 0, 0, 0, 0, 0, 0, 0, 0, 0, 0, 0, 0, 0, 0, 0, 0, 0, 0, 0, 0, 0, 0, 0, 0, 0, 0, 0, 0, 0, 0, 0, 0, 0, 0, 0, 0, 0, 0, 0, 0, 0, 0, 0, 0, 0, 0, 
[2024-06-13 12:18:04.026225] [0x0000007f925b99a0] [LogDataTag] [0x00002ff1] [498] 1718295482836884, 1.18885, 0, 0, 0, 0, 0, 0, 0, 0, 0, 0, 0, 0, 1.8445e+13, 0.083797, -0.183769, -0.312506, 0.998965, -0.00536056, -0.00393063, -0.0450002, 0.000189001, 0.00271521, 0.00307259, -0.000583532, -0.00678675, -0.0172473, -0.0103568, -0.00833567, -0.0899897, 0, 0, 0, 0, 0, 0, 0, 0, 0, 0, 0, 0, 0, 0, 0, 0, 0, 0, 0, 0, 0, 0, 0, 0, 0, 0, 0, 0, 0, 0, 0, 0, 0, 0, 0, 0, 0, 0, 0, 0, 0, 0, 0, 0, 0, 0, 0, 0, 0, 0, 0, 0, 0, 0, 0, 0, 0, 0, 0, 0, 0, 0, 0, 0, 0, 0, 0, 0, 0, 0, 0, 
[2024-06-13 12:18:04.036168] [0x0000007f91db89a0] [LogDataTag] [0x00002ff1] [503] 1718295482836884, 1.19884, 0, 0, 0, 0, 0, 0, 0, 0, 0, 0, 0, 0, 1.8445e+13, 0.0837961, -0.183783, -0.312496, 0.998961, -0.00536234, -0.00393405, -0.045078, 0.00013289, 0.00239492, 0.00293158, -0.000234126, -0.000559936, -0.0146302, -0.0103594, -0.00834346, -0.0901454, 0, 0, 0, 0, 0, 0, 0, 0, 0, 0, 0, 0, 0, 0, 0, 0, 0, 0, 0, 0, 0, 0, 0, 0, 0, 0, 0, 0, 0, 0, 0, 0, 0, 0, 0, 0, 0, 0, 0, 0, 0, 0, 0, 0, 0, 0, 0, 0, 0, 0, 0, 0, 0, 0, 0, 0, 0, 0, 0, 0, 0, 0, 0, 0, 0, 0, 0, 0, 0, 0, 0, 
[2024-06-13 12:18:04.046201] [0x0000007f98d14010] [LogDataTag] [0x00002ff1] [507] 1718295482836884, 1.20887, 0, 0, 0, 0, 0, 0, 0, 0, 0, 0, 0, 0, 1.8445e+13, 0.083795, -0.183795, -0.312484, 0.998957, -0.00537967, -0.00394602, -0.0451791, 0.00026847, 0.0024541, 0.00250567, -0.00160955, -0.00195801, -0.0191773, -0.0103921, -0.00836999, -0.0903476, 0, 0, 0, 0, 0, 0, 0, 0, 0, 0, 0, 0, 0, 0, 0, 0, 0, 0, 0, 0, 0, 0, 0, 0, 0, 0, 0, 0, 0, 0, 0, 0, 0, 0, 0, 0, 0, 0, 0, 0, 0, 0, 0, 0, 0, 0, 0, 0, 0, 0, 0, 0, 0, 0, 0, 0, 0, 0, 0, 0, 0, 0, 0, 0, 0, 0, 0, 0, 0, 0, 0, 
[2024-06-13 12:18:04.056233] [0x0000007f915b79a0] [LogDataTag] [0x00002ff1] [512] 1718295482836884, 1.21888, 0, 0, 0, 0, 0, 0, 0, 0, 0, 0, 0, 0, 1.8445e+13, 0.0837953, -0.183798, -0.312473, 0.998956, -0.00538346, -0.0039322, -0.0451963, 0.000368297, 0.00376753, 0.00258897, 0.00153973, 0.00409694, -0.00677408, -0.0104008, -0.00834291, -0.0903821, 0, 0, 0, 0, 0, 0, 0, 0, 0, 0, 0, 0, 0, 0, 0, 0, 0, 0, 0, 0, 0, 0, 0, 0, 0, 0, 0, 0, 0, 0, 0, 0, 0, 0, 0, 0, 0, 0, 0, 0, 0, 0, 0, 0, 0, 0, 0, 0, 0, 0, 0, 0, 0, 0, 0, 0, 0, 0, 0, 0, 0, 0, 0, 0, 0, 0, 0, 0, 0, 0, 0, 
[2024-06-13 12:18:04.066158] [0x0000007f925b99a0] [LogDataTag] [0x00002ff1] [516] 1718295482836884, 1.22884, 0, 0, 0, 0, 0, 0, 0, 0, 0, 0, 0, 0, 1.8445e+13, 0.0837963, -0.183789, -0.31246, 0.998958, -0.00538957, -0.00392771, -0.0451521, 0.000417844, 0.00463935, 0.00257919, 0.00193601, -0.000942046, 0.0104236, -0.0104138, -0.00833402, -0.0902935, 0, 0, 0, 0, 0, 0, 0, 0, 0, 0, 0, 0, 0, 0, 0, 0, 0, 0, 0, 0, 0, 0, 0, 0, 0, 0, 0, 0, 0, 0, 0, 0, 0, 0, 0, 0, 0, 0, 0, 0, 0, 0, 0, 0, 0, 0, 0, 0, 0, 0, 0, 0, 0, 0, 0, 0, 0, 0, 0, 0, 0, 0, 0, 0, 0, 0, 0, 0, 0, 0, 0, 
[2024-06-13 12:18:04.076173] [0x0000007f91db89a0] [LogDataTag] [0x00002ff1] [520] 1718295482836884, 1.23885, 0, 0, 0, 0, 0, 0, 0, 0, 0, 0, 0, 0, 1.8445e+13, 0.0837968, -0.183776, -0.312451, 0.998962, -0.00537895, -0.00392598, -0.0450707, 0.000447396, 0.00483628, 0.00219055, -0.00314966, -0.000140056, 0.0150853, -0.0103934, -0.00832878, -0.0901307, 0, 0, 0, 0, 0, 0, 0, 0, 0, 0, 0, 0, 0, 0, 0, 0, 0, 0, 0, 0, 0, 0, 0, 0, 0, 0, 0, 0, 0, 0, 0, 0, 0, 0, 0, 0, 0, 0, 0, 0, 0, 0, 0, 0, 0, 0, 0, 0, 0, 0, 0, 0, 0, 0, 0, 0, 0, 0, 0, 0, 0, 0, 0, 0, 0, 0, 0, 0, 0, 0, 0, 
[2024-06-13 12:18:04.086109] [0x0000007f98d14010] [LogDataTag] [0x00002ff1] [525] 1718295482836884, 1.24882, 0, 0, 0, 0, 0, 0, 0, 0, 0, 0, 0, 0, 1.8445e+13, 0.0837967, -0.183763, -0.312444, 0.998965, -0.005361, -0.00392494, -0.0449891, 0.000373285, 0.00458274, 0.00221801, 0.0079282, 0.00210882, 0.019753, -0.0103583, -0.00832422, -0.0899675, 0, 0, 0, 0, 0, 0, 0, 0, 0, 0, 0, 0, 0, 0, 0, 0, 0, 0, 0, 0, 0, 0, 0, 0, 0, 0, 0, 0, 0, 0, 0, 0, 0, 0, 0, 0, 0, 0, 0, 0, 0, 0, 0, 0, 0, 0, 0, 0, 0, 0, 0, 0, 0, 0, 0, 0, 0, 0, 0, 0, 0, 0, 0, 0, 0, 0, 0, 0, 0, 0, 0, 
[2024-06-13 12:18:04.096148] [0x0000007f915b79a0] [LogDataTag] [0x00002ff1] [529] 1718295482836884, 1.25883, 0, 0, 0, 0, 0, 0, 0, 0, 0, 0, 0, 0, 1.8445e+13, 0.0837953, -0.183753, -0.312427, 0.998963, -0.00537051, -0.00390844, -0.0450516, 0.000428246, 0.00337855, 0.00237774, -0.00256109, -0.00204404, -0.0143798, -0.0103783, -0.00829276, -0.0900927, 0, 0, 0, 0, 0, 0, 0, 0, 0, 0, 0, 0, 0, 0, 0, 0, 0, 0, 0, 0, 0, 0, 0, 0, 0, 0, 0, 0, 0, 0, 0, 0, 0, 0, 0, 0, 0, 0, 0, 0, 0, 0, 0, 0, 0, 0, 0, 0, 0, 0, 0, 0, 0, 0, 0, 0, 0, 0, 0, 0, 0, 0, 0, 0, 0, 0, 0, 0, 0, 0, 0, 
[2024-06-13 12:18:04.106380] [0x0000007f925b99a0] [LogDataTag] [0x00002ff1] [533] 1718295482836884, 1.26879, 0, 0, 0, 0, 0, 0, 0, 0, 0, 0, 0, 0, 1.8445e+13, 0.0837945, -0.18375, -0.312416, 0.998961, -0.00537272, -0.00392667, -0.0450917, 0.000411616, 0.00330657, 0.00269677, -0.001861, -0.00805478, -0.0108752, -0.0103807, -0.0083298, -0.0901727, 0, 0, 0, 0, 0, 0, 0, 0, 0, 0, 0, 0, 0, 0, 0, 0, 0, 0, 0, 0, 0, 0, 0, 0, 0, 0, 0, 0, 0, 0, 0, 0, 0, 0, 0, 0, 0, 0, 0, 0, 0, 0, 0, 0, 0, 0, 0, 0, 0, 0, 0, 0, 0, 0, 0, 0, 0, 0, 0, 0, 0, 0, 0, 0, 0, 0, 0, 0, 0, 0, 0, 
[2024-06-13 12:18:04.116171] [0x0000007f91db89a0] [LogDataTag] [0x00002ff1] [538] 1718295482836884, 1.27885, 0, 0, 0, 0, 0, 0, 0, 0, 0, 0, 0, 0, 1.8445e+13, 0.083794, -0.183746, -0.312404, 0.998957, -0.00538382, -0.00393679, -0.0451695, 0.000538586, 0.00390328, 0.00270713, -0.000686639, -0.00696789, -0.00828823, -0.0104013, -0.00835184, -0.0903282, 0, 0, 0, 0, 0, 0, 0, 0, 0, 0, 0, 0, 0, 0, 0, 0, 0, 0, 0, 0, 0, 0, 0, 0, 0, 0, 0, 0, 0, 0, 0, 0, 0, 0, 0, 0, 0, 0, 0, 0, 0, 0, 0, 0, 0, 0, 0, 0, 0, 0, 0, 0, 0, 0, 0, 0, 0, 0, 0, 0, 0, 0, 0, 0, 0, 0, 0, 0, 0, 0, 0, 
[2024-06-13 12:18:04.126163] [0x0000007f98d14010] [LogDataTag] [0x00002ff1] [542] 1718295482836884, 1.28884, 0, 0, 0, 0, 0, 0, 0, 0, 0, 0, 0, 0, 1.8445e+13, 0.0837945, -0.183732, -0.312394, 0.998958, -0.00535566, -0.00393587, -0.0451552, 0.000520817, 0.00491224, 0.00240028, 0.00961985, 0.00113326, 0.0118488, -0.0103453, -0.00834731, -0.0903, 0, 0, 0, 0, 0, 0, 0, 0, 0, 0, 0, 0, 0, 0, 0, 0, 0, 0, 0, 0, 0, 0, 0, 0, 0, 0, 0, 0, 0, 0, 0, 0, 0, 0, 0, 0, 0, 0, 0, 0, 0, 0, 0, 0, 0, 0, 0, 0, 0, 0, 0, 0, 0, 0, 0, 0, 0, 0, 0, 0, 0, 0, 0, 0, 0, 0, 0, 0, 0, 0, 0, 
[2024-06-13 12:18:04.136131] [0x0000007f915b79a0] [LogDataTag] [0x00002ff1] [547] 1718295482836884, 1.29885, 0, 0, 0, 0, 0, 0, 0, 0, 0, 0, 0, 0, 1.8445e+13, 0.0837943, -0.183714, -0.312388, 0.99896, -0.00535054, -0.00392936, -0.0451055, 0.000620789, 0.00485113, 0.00213588, -0.00241951, 0.00196029, 0.00891589, -0.010336, -0.00833332, -0.0902005, 0, 0, 0, 0, 0, 0, 0, 0, 0, 0, 0, 0, 0, 0, 0, 0, 0, 0, 0, 0, 0, 0, 0, 0, 0, 0, 0, 0, 0, 0, 0, 0, 0, 0, 0, 0, 0, 0, 0, 0, 0, 0, 0, 0, 0, 0, 0, 0, 0, 0, 0, 0, 0, 0, 0, 0, 0, 0, 0, 0, 0, 0, 0, 0, 0, 0, 0, 0, 0, 0, 0, 
[2024-06-13 12:18:04.146105] [0x0000007f925b99a0] [LogDataTag] [0x00002ff1] [551] 1718295482836884, 1.30878, 0, 0, 0, 0, 0, 0, 0, 0, 0, 0, 0, 0, 1.8445e+13, 0.0837951, -0.18368, -0.31238, 0.998963, -0.00534521, -0.00391218, -0.0450387, 0.000539166, 0.0047113, 0.0017994, -0.00120942, 0.00317284, -0.000655353, -0.0103275, -0.00829782, -0.090067, 0, 0, 0, 0, 0, 0, 0, 0, 0, 0, 0, 0, 0, 0, 0, 0, 0, 0, 0, 0, 0, 0, 0, 0, 0, 0, 0, 0, 0, 0, 0, 0, 0, 0, 0, 0, 0, 0, 0, 0, 0, 0, 0, 0, 0, 0, 0, 0, 0, 0, 0, 0, 0, 0, 0, 0, 0, 0, 0, 0, 0, 0, 0, 0, 0, 0, 0, 0, 0, 0, 0, 
[2024-06-13 12:18:04.156157] [0x0000007f91db89a0] [LogDataTag] [0x00002ff1] [555] 1718295482836884, 1.31883, 0, 0, 0, 0, 0, 0, 0, 0, 0, 0, 0, 0, 1.8445e+13, 0.0837937, -0.183664, -0.312377, 0.998963, -0.00532525, -0.0039171, -0.0450521, 0.000329968, 0.00455759, 0.00206029, 0.000141273, -0.00209978, -0.0113619, -0.010287, -0.008306, -0.090094, 0, 0, 0, 0, 0, 0, 0, 0, 0, 0, 0, 0, 0, 0, 0, 0, 0, 0, 0, 0, 0, 0, 0, 0, 0, 0, 0, 0, 0, 0, 0, 0, 0, 0, 0, 0, 0, 0, 0, 0, 0, 0, 0, 0, 0, 0, 0, 0, 0, 0, 0, 0, 0, 0, 0, 0, 0, 0, 0, 0, 0, 0, 0, 0, 0, 0, 0, 0, 0, 0, 0, 
[2024-06-13 12:18:04.166223] [0x0000007f915b79a0] [LogDataTag] [0x00002ff1] [560] 1718295482836884, 1.32886, 0, 0, 0, 0, 0, 0, 0, 0, 0, 0, 0, 0, 1.8445e+13, 0.083793, -0.183649, -0.312375, 0.99896, -0.00533351, -0.00392936, -0.045103, 0.000502609, 0.00445331, 0.00181924, -1.1471e-05, -0.00241248, -0.0114491, -0.010302, -0.00833177, -0.0901956, 0, 0, 0, 0, 0, 0, 0, 0, 0, 0, 0, 0, 0, 0, 0, 0, 0, 0, 0, 0, 0, 0, 0, 0, 0, 0, 0, 0, 0, 0, 0, 0, 0, 0, 0, 0, 0, 0, 0, 0, 0, 0, 0, 0, 0, 0, 0, 0, 0, 0, 0, 0, 0, 0, 0, 0, 0, 0, 0, 0, 0, 0, 0, 0, 0, 0, 0, 0, 0, 0, 0, 
[2024-06-13 12:18:04.176125] [0x0000007f98d14010] [LogDataTag] [0x00002ff1] [565] 1718295482836884, 1.33884, 0, 0, 0, 0, 0, 0, 0, 0, 0, 0, 0, 0, 1.8445e+13, 0.0837934, -0.183635, -0.312376, 0.998958, -0.00533827, -0.00395367, -0.0451473, 0.000575554, 0.00455544, 0.00163017, -0.00323688, -0.00323826, -0.0120565, -0.010309, -0.00838121, -0.0902841, 0, 0, 0, 0, 0, 0, 0, 0, 0, 0, 0, 0, 0, 0, 0, 0, 0, 0, 0, 0, 0, 0, 0, 0, 0, 0, 0, 0, 0, 0, 0, 0, 0, 0, 0, 0, 0, 0, 0, 0, 0, 0, 0, 0, 0, 0, 0, 0, 0, 0, 0, 0, 0, 0, 0, 0, 0, 0, 0, 0, 0, 0, 0, 0, 0, 0, 0, 0, 0, 0, 0, 
[2024-06-13 12:18:04.186414] [0x0000007f925b99a0] [LogDataTag] [0x00002ff1] [569] 1718295482836884, 1.34886, 0, 0, 0, 0, 0, 0, 0, 0, 0, 0, 0, 0, 1.8445e+13, 0.0837935, -0.183618, -0.312378, 0.998958, -0.00532808, -0.00394103, -0.0451607, 0.000565335, 0.00494847, 0.00182143, -0.000640167, 0.000430085, -0.00219375, -0.0102896, -0.00835518, -0.0903111, 0, 0, 0, 0, 0, 0, 0, 0, 0, 0, 0, 0, 0, 0, 0, 0, 0, 0, 0, 0, 0, 0, 0, 0, 0, 0, 0, 0, 0, 0, 0, 0, 0, 0, 0, 0, 0, 0, 0, 0, 0, 0, 0, 0, 0, 0, 0, 0, 0, 0, 0, 0, 0, 0, 0, 0, 0, 0, 0, 0, 0, 0, 0, 0, 0, 0, 0, 0, 0, 0, 0, 
[2024-06-13 12:18:04.196126] [0x0000007f91db89a0] [LogDataTag] [0x00002ff1] [573] 1718295482836884, 1.35881, 0, 0, 0, 0, 0, 0, 0, 0, 0, 0, 0, 0, 1.8445e+13, 0.0837944, -0.183601, -0.312379, 0.998958, -0.00532489, -0.00396872, -0.0451562, 0.000717362, 0.00499221, 0.00184418, -0.00136361, -0.00512421, -0.00433387, -0.0102808, -0.00841017, -0.090302, 0, 0, 0, 0, 0, 0, 0, 0, 0, 0, 0, 0, 0, 0, 0, 0, 0, 0, 0, 0, 0, 0, 0, 0, 0, 0, 0, 0, 0, 0, 0, 0, 0, 0, 0, 0, 0, 0, 0, 0, 0, 0, 0, 0, 0, 0, 0, 0, 0, 0, 0, 0, 0, 0, 0, 0, 0, 0, 0, 0, 0, 0, 0, 0, 0, 0, 0, 0, 0, 0, 0, 
[2024-06-13 12:18:04.206293] [0x0000007f915b79a0] [LogDataTag] [0x00002ff1] [578] 1718295482836884, 1.36885, 0, 0, 0, 0, 0, 0, 0, 0, 0, 0, 0, 0, 1.8445e+13, 0.0837965, -0.183582, -0.312381, 0.998961, -0.00530842, -0.00396067, -0.0450943, 0.000800389, 0.00516903, 0.00162492, 0.0104175, 0.000274716, 0.0161621, -0.0102491, -0.00839196, -0.0901782, 0, 0, 0, 0, 0, 0, 0, 0, 0, 0, 0, 0, 0, 0, 0, 0, 0, 0, 0, 0, 0, 0, 0, 0, 0, 0, 0, 0, 0, 0, 0, 0, 0, 0, 0, 0, 0, 0, 0, 0, 0, 0, 0, 0, 0, 0, 0, 0, 0, 0, 0, 0, 0, 0, 0, 0, 0, 0, 0, 0, 0, 0, 0, 0, 0, 0, 0, 0, 0, 0, 0, 
[2024-06-13 12:18:04.216159] [0x0000007f98d14010] [LogDataTag] [0x00002ff1] [581] 1718295482836884, 1.37884, 0, 0, 0, 0, 0, 0, 0, 0, 0, 0, 0, 0, 1.8445e+13, 0.0837991, -0.183563, -0.312382, 0.998962, -0.00529482, -0.00398354, -0.0450688, 0.00080969, 0.00501783, 0.00210214, 0.0045938, -0.00629207, 0.0057596, -0.0102201, -0.00843618, -0.0901269, 0, 0, 0, 0, 0, 0, 0, 0, 0, 0, 0, 0, 0, 0, 0, 0, 0, 0, 0, 0, 0, 0, 0, 0, 0, 0, 0, 0, 0, 0, 0, 0, 0, 0, 0, 0, 0, 0, 0, 0, 0, 0, 0, 0, 0, 0, 0, 0, 0, 0, 0, 0, 0, 0, 0, 0, 0, 0, 0, 0, 0, 0, 0, 0, 0, 0, 0, 0, 0, 0, 0, 
[2024-06-13 12:18:04.226140] [0x0000007f925b99a0] [LogDataTag] [0x00002ff1] [587] 1718295482836884, 1.38885, 0, 0, 0, 0, 0, 0, 0, 0, 0, 0, 0, 0, 1.8445e+13, 0.0838012, -0.183544, -0.312381, 0.998963, -0.00530285, -0.00397804, -0.0450408, 0.000750177, 0.00476529, 0.00207745, -0.00287236, -0.00215102, 0.00408906, -0.0102369, -0.00842561, -0.090071, 0, 0, 0, 0, 0, 0, 0, 0, 0, 0, 0, 0, 0, 0, 0, 0, 0, 0, 0, 0, 0, 0, 0, 0, 0, 0, 0, 0, 0, 0, 0, 0, 0, 0, 0, 0, 0, 0, 0, 0, 0, 0, 0, 0, 0, 0, 0, 0, 0, 0, 0, 0, 0, 0, 0, 0, 0, 0, 0, 0, 0, 0, 0, 0, 0, 0, 0, 0, 0, 0, 0, 
[2024-06-13 12:18:04.236197] [0x0000007f91db89a0] [LogDataTag] [0x00002ff1] [591] 1718295482836884, 1.39885, 0, 0, 0, 0, 0, 0, 0, 0, 0, 0, 0, 0, 1.8445e+13, 0.0838048, -0.183512, -0.312383, 0.99896, -0.00531696, -0.00397398, -0.0451004, 0.000732176, 0.00462084, 0.00191876, -0.00393166, -0.00219334, -0.0111099, -0.0102649, -0.00841938, -0.0901903, 0, 0, 0, 0, 0, 0, 0, 0, 0, 0, 0, 0, 0, 0, 0, 0, 0, 0, 0, 0, 0, 0, 0, 0, 0, 0, 0, 0, 0, 0, 0, 0, 0, 0, 0, 0, 0, 0, 0, 0, 0, 0, 0, 0, 0, 0, 0, 0, 0, 0, 0, 0, 0, 0, 0, 0, 0, 0, 0, 0, 0, 0, 0, 0, 0, 0, 0, 0, 0, 0, 0, 
[2024-06-13 12:18:04.246226] [0x0000007f915b79a0] [LogDataTag] [0x00002ff1] [595] 1718295482836884, 1.40891, 0, 0, 0, 0, 0, 0, 0, 0, 0, 0, 0, 0, 1.8445e+13, 0.0838064, -0.183496, -0.312386, 0.998959, -0.0053323, -0.00396482, -0.0451259, 0.000706552, 0.00480946, 0.0017759, -0.00620254, 0.00809532, -0.000578934, -0.0102962, -0.00840274, -0.0902412, 0, 0, 0, 0, 0, 0, 0, 0, 0, 0, 0, 0, 0, 0, 0, 0, 0, 0, 0, 0, 0, 0, 0, 0, 0, 0, 0, 0, 0, 0, 0, 0, 0, 0, 0, 0, 0, 0, 0, 0, 0, 0, 0, 0, 0, 0, 0, 0, 0, 0, 0, 0, 0, 0, 0, 0, 0, 0, 0, 0, 0, 0, 0, 0, 0, 0, 0, 0, 0, 0, 0, 
[2024-06-13 12:18:04.256212] [0x0000007f98d14010] [LogDataTag] [0x00002ff1] [600] 1718295482836884, 1.41885, 0, 0, 0, 0, 0, 0, 0, 0, 0, 0, 0, 0, 1.8445e+13, 0.0838078, -0.183479, -0.31239, 0.998959, -0.00531766, -0.00396194, -0.0451312, 0.000640618, 0.00489527, 0.00177078, -0.00173332, 0.00550718, 0.00121703, -0.0102672, -0.00839571, -0.0902519, 0, 0, 0, 0, 0, 0, 0, 0, 0, 0, 0, 0, 0, 0, 0, 0, 0, 0, 0, 0, 0, 0, 0, 0, 0, 0, 0, 0, 0, 0, 0, 0, 0, 0, 0, 0, 0, 0, 0, 0, 0, 0, 0, 0, 0, 0, 0, 0, 0, 0, 0, 0, 0, 0, 0, 0, 0, 0, 0, 0, 0, 0, 0, 0, 0, 0, 0, 0, 0, 0, 0, 
[2024-06-13 12:18:04.266166] [0x0000007f915b79a0] [LogDataTag] [0x00002ff1] [604] 1718295482836884, 1.42882, 0, 0, 0, 0, 0, 0, 0, 0, 0, 0, 0, 0, 1.8445e+13, 0.083809, -0.183464, -0.312397, 0.99896, -0.00530278, -0.0039668, -0.0451036, 0.000587096, 0.00484586, 0.00136182, 0.00771299, 0.0009395, 0.0117441, -0.0102372, -0.0084038, -0.0901967, 0, 0, 0, 0, 0, 0, 0, 0, 0, 0, 0, 0, 0, 0, 0, 0, 0, 0, 0, 0, 0, 0, 0, 0, 0, 0, 0, 0, 0, 0, 0, 0, 0, 0, 0, 0, 0, 0, 0, 0, 0, 0, 0, 0, 0, 0, 0, 0, 0, 0, 0, 0, 0, 0, 0, 0, 0, 0, 0, 0, 0, 0, 0, 0, 0, 0, 0, 0, 0, 0, 0, 
[2024-06-13 12:18:04.276372] [0x0000007f91db89a0] [LogDataTag] [0x00002ff1] [608] 1718295482836884, 1.43878, 0, 0, 0, 0, 0, 0, 0, 0, 0, 0, 0, 0, 1.8445e+13, 0.0838093, -0.183446, -0.312404, 0.998963, -0.00529912, -0.00397505, -0.0450542, 0.000470495, 0.00488613, 0.0013397, -0.00529362, -0.00268423, 0.012058, -0.0102296, -0.00841946, -0.0900978, 0, 0, 0, 0, 0, 0, 0, 0, 0, 0, 0, 0, 0, 0, 0, 0, 0, 0, 0, 0, 0, 0, 0, 0, 0, 0, 0, 0, 0, 0, 0, 0, 0, 0, 0, 0, 0, 0, 0, 0, 0, 0, 0, 0, 0, 0, 0, 0, 0, 0, 0, 0, 0, 0, 0, 0, 0, 0, 0, 0, 0, 0, 0, 0, 0, 0, 0, 0, 0, 0, 0, 
[2024-06-13 12:18:04.286184] [0x0000007f925b99a0] [LogDataTag] [0x00002ff1] [613] 1718295482836884, 1.44885, 0, 0, 0, 0, 0, 0, 0, 0, 0, 0, 0, 0, 1.8445e+13, 0.0838094, -0.183431, -0.312415, 0.998963, -0.00530056, -0.00398186, -0.045052, 0.000540023, 0.00470565, 0.000811968, 0.00149636, -0.00261616, 0.00287845, -0.0102319, -0.00843316, -0.0900933, 0, 0, 0, 0, 0, 0, 0, 0, 0, 0, 0, 0, 0, 0, 0, 0, 0, 0, 0, 0, 0, 0, 0, 0, 0, 0, 0, 0, 0, 0, 0, 0, 0, 0, 0, 0, 0, 0, 0, 0, 0, 0, 0, 0, 0, 0, 0, 0, 0, 0, 0, 0, 0, 0, 0, 0, 0, 0, 0, 0, 0, 0, 0, 0, 0, 0, 0, 0, 0, 0, 0, 
[2024-06-13 12:18:04.296167] [0x0000007f98d14010] [LogDataTag] [0x00002ff1] [618] 1718295482836884, 1.45887, 0, 0, 0, 0, 0, 0, 0, 0, 0, 0, 0, 0, 1.8445e+13, 0.0838104, -0.183415, -0.312428, 0.998963, -0.00529476, -0.00396959, -0.0450555, 0.0006854, 0.0045233, 0.000766673, 0.0011702, 0.0039601, 0.00231261, -0.0102214, -0.00840817, -0.0901005, 0, 0, 0, 0, 0, 0, 0, 0, 0, 0, 0, 0, 0, 0, 0, 0, 0, 0, 0, 0, 0, 0, 0, 0, 0, 0, 0, 0, 0, 0, 0, 0, 0, 0, 0, 0, 0, 0, 0, 0, 0, 0, 0, 0, 0, 0, 0, 0, 0, 0, 0, 0, 0, 0, 0, 0, 0, 0, 0, 0, 0, 0, 0, 0, 0, 0, 0, 0, 0, 0, 0, 
[2024-06-13 12:18:04.306159] [0x0000007f915b79a0] [LogDataTag] [0x00002ff1] [622] 1718295482836884, 1.46884, 0, 0, 0, 0, 0, 0, 0, 0, 0, 0, 0, 0, 1.8445e+13, 0.083813, -0.183402, -0.312441, 0.998961, -0.00530086, -0.00398722, -0.0450879, 0.000796639, 0.00437592, 0.000857914, -0.00219834, -0.00485517, -0.00925735, -0.0102317, -0.00844427, -0.0901653, 0, 0, 0, 0, 0, 0, 0, 0, 0, 0, 0, 0, 0, 0, 0, 0, 0, 0, 0, 0, 0, 0, 0, 0, 0, 0, 0, 0, 0, 0, 0, 0, 0, 0, 0, 0, 0, 0, 0, 0, 0, 0, 0, 0, 0, 0, 0, 0, 0, 0, 0, 0, 0, 0, 0, 0, 0, 0, 0, 0, 0, 0, 0, 0, 0, 0, 0, 0, 0, 0, 0, 
[2024-06-13 12:18:04.316515] [0x0000007f91db89a0] [LogDataTag] [0x00002ff1] [626] 1718295482836884, 1.47889, 0, 0, 0, 0, 0, 0, 0, 0, 0, 0, 0, 0, 1.8445e+13, 0.0838162, -0.183392, -0.312456, 0.998959, -0.00529833, -0.00400024, -0.0451328, 0.000831406, 0.00437484, 0.00078716, -0.00285897, -0.00937822, -0.00340951, -0.0102251, -0.0084705, -0.0902549, 0, 0, 0, 0, 0, 0, 0, 0, 0, 0, 0, 0, 0, 0, 0, 0, 0, 0, 0, 0, 0, 0, 0, 0, 0, 0, 0, 0, 0, 0, 0, 0, 0, 0, 0, 0, 0, 0, 0, 0, 0, 0, 0, 0, 0, 0, 0, 0, 0, 0, 0, 0, 0, 0, 0, 0, 0, 0, 0, 0, 0, 0, 0, 0, 0, 0, 0, 0, 0, 0, 0, 
[2024-06-13 12:18:04.326166] [0x0000007f925b99a0] [LogDataTag] [0x00002ff1] [631] 1718295482836884, 1.48884, 0, 0, 0, 0, 0, 0, 0, 0, 0, 0, 0, 0, 1.8445e+13, 0.0838218, -0.18337, -0.312481, 0.99896, -0.00529097, -0.0039878, -0.0451098, 0.000739685, 0.00426697, 0.001164, -0.00178623, 0.000216536, 0.00792944, -0.0102117, -0.00844475, -0.0902091, 0, 0, 0, 0, 0, 0, 0, 0, 0, 0, 0, 0, 0, 0, 0, 0, 0, 0, 0, 0, 0, 0, 0, 0, 0, 0, 0, 0, 0, 0, 0, 0, 0, 0, 0, 0, 0, 0, 0, 0, 0, 0, 0, 0, 0, 0, 0, 0, 0, 0, 0, 0, 0, 0, 0, 0, 0, 0, 0, 0, 0, 0, 0, 0, 0, 0, 0, 0, 0, 0, 0, 
[2024-06-13 12:18:04.336143] [0x0000007f98d14010] [LogDataTag] [0x00002ff1] [636] 1718295482836884, 1.49885, 0, 0, 0, 0, 0, 0, 0, 0, 0, 0, 0, 0, 1.8445e+13, 0.0838245, -0.183362, -0.312492, 0.998961, -0.0053015, -0.00398898, -0.045098, 0.000809747, 0.00415155, 0.00109455, -0.00471485, -0.00225682, 0.00352798, -0.0102327, -0.00844793, -0.0901853, 0, 0, 0, 0, 0, 0, 0, 0, 0, 0, 0, 0, 0, 0, 0, 0, 0, 0, 0, 0, 0, 0, 0, 0, 0, 0, 0, 0, 0, 0, 0, 0, 0, 0, 0, 0, 0, 0, 0, 0, 0, 0, 0, 0, 0, 0, 0, 0, 0, 0, 0, 0, 0, 0, 0, 0, 0, 0, 0, 0, 0, 0, 0, 0, 0, 0, 0, 0, 0, 0, 0, 
[2024-06-13 12:18:04.346119] [0x0000007f915b79a0] [LogDataTag] [0x00002ff1] [640] 1718295482836884, 1.5088, 0, 0, 0, 0, 0, 0, 0, 0, 0, 0, 0, 0, 1.8445e+13, 0.0838277, -0.183359, -0.312505, 0.998961, -0.00529461, -0.00399822, -0.0450986, 0.000820188, 0.00321667, 0.000741977, 0.00166693, -0.00453066, -0.00450491, -0.0102181, -0.00846579, -0.0901866, 0, 0, 0, 0, 0, 0, 0, 0, 0, 0, 0, 0, 0, 0, 0, 0, 0, 0, 0, 0, 0, 0, 0, 0, 0, 0, 0, 0, 0, 0, 0, 0, 0, 0, 0, 0, 0, 0, 0, 0, 0, 0, 0, 0, 0, 0, 0, 0, 0, 0, 0, 0, 0, 0, 0, 0, 0, 0, 0, 0, 0, 0, 0, 0, 0, 0, 0, 0, 0, 0, 0, 
[2024-06-13 12:18:04.356158] [0x0000007f91db89a0] [LogDataTag] [0x00002ff1] [644] 1718295482836884, 1.51883, 0, 0, 0, 0, 0, 0, 0, 0, 0, 0, 0, 0, 1.8445e+13, 0.0838303, -0.183356, -0.312518, 0.998961, -0.00531683, -0.0039788, -0.0450852, 0.000903069, 0.00482226, 0.00138623, -0.00589255, -0.00217051, 0.00524114, -0.0102644, -0.00842886, -0.0901598, 0, 0, 0, 0, 0, 0, 0, 0, 0, 0, 0, 0, 0, 0, 0, 0, 0, 0, 0, 0, 0, 0, 0, 0, 0, 0, 0, 0, 0, 0, 0, 0, 0, 0, 0, 0, 0, 0, 0, 0, 0, 0, 0, 0, 0, 0, 0, 0, 0, 0, 0, 0, 0, 0, 0, 0, 0, 0, 0, 0, 0, 0, 0, 0, 0, 0, 0, 0, 0, 0, 0, 
[2024-06-13 12:18:04.366139] [0x0000007f925b99a0] [LogDataTag] [0x00002ff1] [649] 1718295482836884, 1.52881, 0, 0, 0, 0, 0, 0, 0, 0, 0, 0, 0, 0, 1.8445e+13, 0.083834, -0.183351, -0.31253, 0.998964, -0.00530649, -0.00399972, -0.0450205, 0.000929948, 0.00378262, 0.000566079, 0.00324647, -0.00271237, 0.0145193, -0.0102424, -0.00846906, -0.0900301, 0, 0, 0, 0, 0, 0, 0, 0, 0, 0, 0, 0, 0, 0, 0, 0, 0, 0, 0, 0, 0, 0, 0, 0, 0, 0, 0, 0, 0, 0, 0, 0, 0, 0, 0, 0, 0, 0, 0, 0, 0, 0, 0, 0, 0, 0, 0, 0, 0, 0, 0, 0, 0, 0, 0, 0, 0, 0, 0, 0, 0, 0, 0, 0, 0, 0, 0, 0, 0, 0, 0, 
[2024-06-13 12:18:04.376222] [0x0000007f98d14010] [LogDataTag] [0x00002ff1] [653] 1718295482836884, 1.53884, 0, 0, 0, 0, 0, 0, 0, 0, 0, 0, 0, 0, 1.8445e+13, 0.0838375, -0.183358, -0.31255, 0.998965, -0.00531388, -0.00401018, -0.0450057, 0.000850445, 0.00246885, -2.66959e-05, -0.00133296, 0.00257, 0.00020786, -0.0102563, -0.00849047, -0.0900004, 0, 0, 0, 0, 0, 0, 0, 0, 0, 0, 0, 0, 0, 0, 0, 0, 0, 0, 0, 0, 0, 0, 0, 0, 0, 0, 0, 0, 0, 0, 0, 0, 0, 0, 0, 0, 0, 0, 0, 0, 0, 0, 0, 0, 0, 0, 0, 0, 0, 0, 0, 0, 0, 0, 0, 0, 0, 0, 0, 0, 0, 0, 0, 0, 0, 0, 0, 0, 0, 0, 0, 
[2024-06-13 12:18:04.386145] [0x0000007f925b99a0] [LogDataTag] [0x00002ff1] [658] 1718295482836884, 1.54884, 0, 0, 0, 0, 0, 0, 0, 0, 0, 0, 0, 0, 1.8445e+13, 0.0838396, -0.183375, -0.312569, 0.998961, -0.00528898, -0.00401419, -0.0450921, 0.000597613, 0.00156927, 0.000821684, 0.00566334, -0.00720934, -0.0236789, -0.0102055, -0.00849712, -0.0901733, 0, 0, 0, 0, 0, 0, 0, 0, 0, 0, 0, 0, 0, 0, 0, 0, 0, 0, 0, 0, 0, 0, 0, 0, 0, 0, 0, 0, 0, 0, 0, 0, 0, 0, 0, 0, 0, 0, 0, 0, 0, 0, 0, 0, 0, 0, 0, 0, 0, 0, 0, 0, 0, 0, 0, 0, 0, 0, 0, 0, 0, 0, 0, 0, 0, 0, 0, 0, 0, 0, 0, 
[2024-06-13 12:18:04.396155] [0x0000007f91db89a0] [LogDataTag] [0x00002ff1] [662] 1718295482836884, 1.55883, 0, 0, 0, 0, 0, 0, 0, 0, 0, 0, 0, 0, 1.8445e+13, 0.0838402, -0.183397, -0.312588, 0.998956, -0.00531996, -0.00399477, -0.0451936, 0.00068029, 0.00194499, 0.00045366, -0.00767416, 0.00191498, -0.0209421, -0.0102683, -0.00846216, -0.0903766, 0, 0, 0, 0, 0, 0, 0, 0, 0, 0, 0, 0, 0, 0, 0, 0, 0, 0, 0, 0, 0, 0, 0, 0, 0, 0, 0, 0, 0, 0, 0, 0, 0, 0, 0, 0, 0, 0, 0, 0, 0, 0, 0, 0, 0, 0, 0, 0, 0, 0, 0, 0, 0, 0, 0, 0, 0, 0, 0, 0, 0, 0, 0, 0, 0, 0, 0, 0, 0, 0, 0, 
[2024-06-13 12:18:04.406125] [0x0000007f915b79a0] [LogDataTag] [0x00002ff1] [667] 1718295482836884, 1.56882, 0, 0, 0, 0, 0, 0, 0, 0, 0, 0, 0, 0, 1.8445e+13, 0.0838425, -0.183412, -0.312604, 0.998954, -0.00530974, -0.00396701, -0.0452406, 0.000785857, 0.00273375, 0.000736225, 0.00254236, 0.0013354, -0.00469722, -0.01025, -0.00840626, -0.090471, 0, 0, 0, 0, 0, 0, 0, 0, 0, 0, 0, 0, 0, 0, 0, 0, 0, 0, 0, 0, 0, 0, 0, 0, 0, 0, 0, 0, 0, 0, 0, 0, 0, 0, 0, 0, 0, 0, 0, 0, 0, 0, 0, 0, 0, 0, 0, 0, 0, 0, 0, 0, 0, 0, 0, 0, 0, 0, 0, 0, 0, 0, 0, 0, 0, 0, 0, 0, 0, 0, 0, 
[2024-06-13 12:18:04.416152] [0x0000007f98d14010] [LogDataTag] [0x00002ff1] [671] 1718295482836884, 1.57883, 0, 0, 0, 0, 0, 0, 0, 0, 0, 0, 0, 0, 1.8445e+13, 0.0838503, -0.183417, -0.312624, 0.99896, -0.00531435, -0.00400106, -0.0451085, 0.00112569, 0.00447441, 0.00171142, 0.000336146, -0.0103052, 0.0202281, -0.0102572, -0.00847335, -0.0902062, 0, 0, 0, 0, 0, 0, 0, 0, 0, 0, 0, 0, 0, 0, 0, 0, 0, 0, 0, 0, 0, 0, 0, 0, 0, 0, 0, 0, 0, 0, 0, 0, 0, 0, 0, 0, 0, 0, 0, 0, 0, 0, 0, 0, 0, 0, 0, 0, 0, 0, 0, 0, 0, 0, 0, 0, 0, 0, 0, 0, 0, 0, 0, 0, 0, 0, 0, 0, 0, 0, 0, 
[2024-06-13 12:18:04.426132] [0x0000007f925b99a0] [LogDataTag] [0x00002ff1] [676] 1718295482836884, 1.58884, 0, 0, 0, 0, 0, 0, 0, 0, 0, 0, 0, 0, 1.8445e+13, 0.0838527, -0.183417, -0.312632, 0.998963, -0.00529417, -0.00400052, -0.0450329, 0.00058225, 0.00418909, 0.00160679, -0.00155982, 0.00422976, 0.0161132, -0.0102176, -0.00846966, -0.0900549, 0, 0, 0, 0, 0, 0, 0, 0, 0, 0, 0, 0, 0, 0, 0, 0, 0, 0, 0, 0, 0, 0, 0, 0, 0, 0, 0, 0, 0, 0, 0, 0, 0, 0, 0, 0, 0, 0, 0, 0, 0, 0, 0, 0, 0, 0, 0, 0, 0, 0, 0, 0, 0, 0, 0, 0, 0, 0, 0, 0, 0, 0, 0, 0, 0, 0, 0, 0, 0, 0, 0, 
[2024-06-13 12:18:04.436213] [0x0000007f91db89a0] [LogDataTag] [0x00002ff1] [680] 1718295482836884, 1.59885, 0, 0, 0, 0, 0, 0, 0, 0, 0, 0, 0, 0, 1.8445e+13, 0.0838523, -0.183422, -0.312638, 0.998965, -0.00528712, -0.00397616, -0.045011, 0.000408719, 0.00286734, 0.00157472, 0.00261111, 0.00511732, 0.00015743, -0.0102059, -0.00842014, -0.0900115, 0, 0, 0, 0, 0, 0, 0, 0, 0, 0, 0, 0, 0, 0, 0, 0, 0, 0, 0, 0, 0, 0, 0, 0, 0, 0, 0, 0, 0, 0, 0, 0, 0, 0, 0, 0, 0, 0, 0, 0, 0, 0, 0, 0, 0, 0, 0, 0, 0, 0, 0, 0, 0, 0, 0, 0, 0, 0, 0, 0, 0, 0, 0, 0, 0, 0, 0, 0, 0, 0, 0, 
[2024-06-13 12:18:04.446158] [0x0000007f915b79a0] [LogDataTag] [0x00002ff1] [684] 1718295482836884, 1.60882, 0, 0, 0, 0, 0, 0, 0, 0, 0, 0, 0, 0, 1.8445e+13, 0.0838519, -0.183437, -0.312643, 0.998962, -0.00531892, -0.00397322, -0.0450566, 0.000498593, 0.00202727, 0.0018188, -0.00460603, 0.00351903, -0.00586998, -0.0102693, -0.0084176, -0.0901025, 0, 0, 0, 0, 0, 0, 0, 0, 0, 0, 0, 0, 0, 0, 0, 0, 0, 0, 0, 0, 0, 0, 0, 0, 0, 0, 0, 0, 0, 0, 0, 0, 0, 0, 0, 0, 0, 0, 0, 0, 0, 0, 0, 0, 0, 0, 0, 0, 0, 0, 0, 0, 0, 0, 0, 0, 0, 0, 0, 0, 0, 0, 0, 0, 0, 0, 0, 0, 0, 0, 0, 
[2024-06-13 12:18:04.456209] [0x0000007f98d14010] [LogDataTag] [0x00002ff1] [689] 1718295482836884, 1.61884, 0, 0, 0, 0, 0, 0, 0, 0, 0, 0, 0, 0, 1.8445e+13, 0.0838502, -0.183458, -0.312649, 0.998958, -0.00533423, -0.00400528, -0.0451506, 0.000429219, 0.00219626, 0.00202581, -0.00220662, -0.0109401, -0.0258271, -0.0102962, -0.00848399, -0.0902902, 0, 0, 0, 0, 0, 0, 0, 0, 0, 0, 0, 0, 0, 0, 0, 0, 0, 0, 0, 0, 0, 0, 0, 0, 0, 0, 0, 0, 0, 0, 0, 0, 0, 0, 0, 0, 0, 0, 0, 0, 0, 0, 0, 0, 0, 0, 0, 0, 0, 0, 0, 0, 0, 0, 0, 0, 0, 0, 0, 0, 0, 0, 0, 0, 0, 0, 0, 0, 0, 0, 0, 
[2024-06-13 12:18:04.466138] [0x0000007f925b99a0] [LogDataTag] [0x00002ff1] [693] 1718295482836884, 1.62882, 0, 0, 0, 0, 0, 0, 0, 0, 0, 0, 0, 0, 1.8445e+13, 0.0838492, -0.183477, -0.312653, 0.998955, -0.00534298, -0.00402621, -0.045209, 0.000449849, 0.00266058, 0.0014034, -0.00264269, -0.00368305, -0.0102995, -0.0103113, -0.00852722, -0.0904069, 0, 0, 0, 0, 0, 0, 0, 0, 0, 0, 0, 0, 0, 0, 0, 0, 0, 0, 0, 0, 0, 0, 0, 0, 0, 0, 0, 0, 0, 0, 0, 0, 0, 0, 0, 0, 0, 0, 0, 0, 0, 0, 0, 0, 0, 0, 0, 0, 0, 0, 0, 0, 0, 0, 0, 0, 0, 0, 0, 0, 0, 0, 0, 0, 0, 0, 0, 0, 0, 0, 0, 
[2024-06-13 12:18:04.476148] [0x0000007f91db89a0] [LogDataTag] [0x00002ff1] [698] 1718295482836884, 1.63885, 0, 0, 0, 0, 0, 0, 0, 0, 0, 0, 0, 0, 1.8445e+13, 0.0838488, -0.183488, -0.312664, 0.998955, -0.00534537, -0.00403229, -0.0452196, 0.000575554, 0.00371474, 0.000496138, 7.31529e-05, -0.0025624, 0.00208488, -0.0103154, -0.00853968, -0.0904281, 0, 0, 0, 0, 0, 0, 0, 0, 0, 0, 0, 0, 0, 0, 0, 0, 0, 0, 0, 0, 0, 0, 0, 0, 0, 0, 0, 0, 0, 0, 0, 0, 0, 0, 0, 0, 0, 0, 0, 0, 0, 0, 0, 0, 0, 0, 0, 0, 0, 0, 0, 0, 0, 0, 0, 0, 0, 0, 0, 0, 0, 0, 0, 0, 0, 0, 0, 0, 0, 0, 0, 
[2024-06-13 12:18:04.486208] [0x0000007f915b79a0] [LogDataTag] [0x00002ff1] [702] 1718295482836884, 1.64885, 0, 0, 0, 0, 0, 0, 0, 0, 0, 0, 0, 0, 1.8445e+13, 0.0838477, -0.183494, -0.312683, 0.998957, -0.00533031, -0.00400342, -0.0451632, 0.000586486, 0.00440564, -0.00013225, 0.00231482, 0.0122521, 0.020937, -0.0102884, -0.00848006, -0.0903156, 0, 0, 0, 0, 0, 0, 0, 0, 0, 0, 0, 0, 0, 0, 0, 0, 0, 0, 0, 0, 0, 0, 0, 0, 0, 0, 0, 0, 0, 0, 0, 0, 0, 0, 0, 0, 0, 0, 0, 0, 0, 0, 0, 0, 0, 0, 0, 0, 0, 0, 0, 0, 0, 0, 0, 0, 0, 0, 0, 0, 0, 0, 0, 0, 0, 0, 0, 0, 0, 0, 0, 
[2024-06-13 12:18:04.496134] [0x0000007f98d14010] [LogDataTag] [0x00002ff1] [706] 1718295482836884, 1.65877, 0, 0, 0, 0, 0, 0, 0, 0, 0, 0, 0, 0, 1.8445e+13, 0.0838472, -0.183494, -0.312703, 0.99896, -0.0053516, -0.0039777, -0.0451064, 0.000422167, 0.0042857, 7.13737e-05, -0.00227766, 0.00523922, 0.0107704, -0.0103338, -0.00843001, -0.0902018, 0, 0, 0, 0, 0, 0, 0, 0, 0, 0, 0, 0, 0, 0, 0, 0, 0, 0, 0, 0, 0, 0, 0, 0, 0, 0, 0, 0, 0, 0, 0, 0, 0, 0, 0, 0, 0, 0, 0, 0, 0, 0, 0, 0, 0, 0, 0, 0, 0, 0, 0, 0, 0, 0, 0, 0, 0, 0, 0, 0, 0, 0, 0, 0, 0, 0, 0, 0, 0, 0, 0, 
[2024-06-13 12:18:04.506146] [0x0000007f925b99a0] [LogDataTag] [0x00002ff1] [711] 1718295482836884, 1.66884, 0, 0, 0, 0, 0, 0, 0, 0, 0, 0, 0, 0, 1.8445e+13, 0.0838429, -0.183511, -0.312736, 0.998964, -0.0053512, -0.00396962, -0.0450279, 0.000412987, 0.00310044, 0.000849456, -0.00205982, -0.00746222, 0.00243821, -0.0103344, -0.00841302, -0.0900447, 0, 0, 0, 0, 0, 0, 0, 0, 0, 0, 0, 0, 0, 0, 0, 0, 0, 0, 0, 0, 0, 0, 0, 0, 0, 0, 0, 0, 0, 0, 0, 0, 0, 0, 0, 0, 0, 0, 0, 0, 0, 0, 0, 0, 0, 0, 0, 0, 0, 0, 0, 0, 0, 0, 0, 0, 0, 0, 0, 0, 0, 0, 0, 0, 0, 0, 0, 0, 0, 0, 0, 
[2024-06-13 12:18:04.516138] [0x0000007f91db89a0] [LogDataTag] [0x00002ff1] [715] 1718295482836884, 1.67882, 0, 0, 0, 0, 0, 0, 0, 0, 0, 0, 0, 0, 1.8445e+13, 0.0838403, -0.18353, -0.312747, 0.99896, -0.00534199, -0.00397896, -0.0450988, 0.000386529, 0.00239082, 0.000524078, 0.00288453, -0.00425547, -0.0188165, -0.0103145, -0.00843159, -0.0901867, 0, 0, 0, 0, 0, 0, 0, 0, 0, 0, 0, 0, 0, 0, 0, 0, 0, 0, 0, 0, 0, 0, 0, 0, 0, 0, 0, 0, 0, 0, 0, 0, 0, 0, 0, 0, 0, 0, 0, 0, 0, 0, 0, 0, 0, 0, 0, 0, 0, 0, 0, 0, 0, 0, 0, 0, 0, 0, 0, 0, 0, 0, 0, 0, 0, 0, 0, 0, 0, 0, 0, 
[2024-06-13 12:18:04.526158] [0x0000007f915b79a0] [LogDataTag] [0x00002ff1] [720] 1718295482836884, 1.68884, 0, 0, 0, 0, 0, 0, 0, 0, 0, 0, 0, 0, 1.8445e+13, 0.0838366, -0.183549, -0.312758, 0.998958, -0.00534915, -0.00397838, -0.045154, 0.000181035, 0.00289584, 0.000778577, 0.00090369, 0.000680497, -0.0110491, -0.0103284, -0.00843165, -0.0902971, 0, 0, 0, 0, 0, 0, 0, 0, 0, 0, 0, 0, 0, 0, 0, 0, 0, 0, 0, 0, 0, 0, 0, 0, 0, 0, 0, 0, 0, 0, 0, 0, 0, 0, 0, 0, 0, 0, 0, 0, 0, 0, 0, 0, 0, 0, 0, 0, 0, 0, 0, 0, 0, 0, 0, 0, 0, 0, 0, 0, 0, 0, 0, 0, 0, 0, 0, 0, 0, 0, 0, 
[2024-06-13 12:18:04.536136] [0x0000007f98d14010] [LogDataTag] [0x00002ff1] [724] 1718295482836884, 1.69884, 0, 0, 0, 0, 0, 0, 0, 0, 0, 0, 0, 0, 1.8445e+13, 0.083831, -0.183565, -0.312767, 0.998956, -0.00535416, -0.00397331, -0.0451996, 0.000177281, 0.00328597, 0.00122321, -0.00109087, 0.00169968, -0.00329654, -0.0103385, -0.00842244, -0.0903885, 0, 0, 0, 0, 0, 0, 0, 0, 0, 0, 0, 0, 0, 0, 0, 0, 0, 0, 0, 0, 0, 0, 0, 0, 0, 0, 0, 0, 0, 0, 0, 0, 0, 0, 0, 0, 0, 0, 0, 0, 0, 0, 0, 0, 0, 0, 0, 0, 0, 0, 0, 0, 0, 0, 0, 0, 0, 0, 0, 0, 0, 0, 0, 0, 0, 0, 0, 0, 0, 0, 0, 
[2024-06-13 12:18:04.546101] [0x0000007f925b99a0] [LogDataTag] [0x00002ff1] [728] 1718295482836884, 1.70878, 0, 0, 0, 0, 0, 0, 0, 0, 0, 0, 0, 0, 1.8445e+13, 0.0838258, -0.183576, -0.312774, 0.998957, -0.00536636, -0.00395058, -0.0451779, 0.000242916, 0.00409782, 0.00121241, 0.00213285, 0.00647813, 0.00843659, -0.0103651, -0.0083779, -0.0903451, 0, 0, 0, 0, 0, 0, 0, 0, 0, 0, 0, 0, 0, 0, 0, 0, 0, 0, 0, 0, 0, 0, 0, 0, 0, 0, 0, 0, 0, 0, 0, 0, 0, 0, 0, 0, 0, 0, 0, 0, 0, 0, 0, 0, 0, 0, 0, 0, 0, 0, 0, 0, 0, 0, 0, 0, 0, 0, 0, 0, 0, 0, 0, 0, 0, 0, 0, 0, 0, 0, 0, 
[2024-06-13 12:18:04.556170] [0x0000007f91db89a0] [LogDataTag] [0x00002ff1] [733] 1718295482836884, 1.71885, 0, 0, 0, 0, 0, 0, 0, 0, 0, 0, 0, 0, 1.8445e+13, 0.0838234, -0.18358, -0.312779, 0.998959, -0.00535745, -0.00394608, -0.0451351, 0.000596361, 0.00427466, 0.00116976, -0.0024577, -0.00058703, 0.0103968, -0.0103481, -0.00836766, -0.0902595, 0, 0, 0, 0, 0, 0, 0, 0, 0, 0, 0, 0, 0, 0, 0, 0, 0, 0, 0, 0, 0, 0, 0, 0, 0, 0, 0, 0, 0, 0, 0, 0, 0, 0, 0, 0, 0, 0, 0, 0, 0, 0, 0, 0, 0, 0, 0, 0, 0, 0, 0, 0, 0, 0, 0, 0, 0, 0, 0, 0, 0, 0, 0, 0, 0, 0, 0, 0, 0, 0, 0, 
[2024-06-13 12:18:04.566151] [0x0000007f915b79a0] [LogDataTag] [0x00002ff1] [737] 1718295482836884, 1.72883, 0, 0, 0, 0, 0, 0, 0, 0, 0, 0, 0, 0, 1.8445e+13, 0.0838214, -0.183584, -0.312784, 0.998961, -0.00537358, -0.00393384, -0.0450844, 0.000462561, 0.004178, 0.00114026, -0.00167433, -0.00115349, 0.00944128, -0.0103818, -0.00834413, -0.0901581, 0, 0, 0, 0, 0, 0, 0, 0, 0, 0, 0, 0, 0, 0, 0, 0, 0, 0, 0, 0, 0, 0, 0, 0, 0, 0, 0, 0, 0, 0, 0, 0, 0, 0, 0, 0, 0, 0, 0, 0, 0, 0, 0, 0, 0, 0, 0, 0, 0, 0, 0, 0, 0, 0, 0, 0, 0, 0, 0, 0, 0, 0, 0, 0, 0, 0, 0, 0, 0, 0, 0, 
[2024-06-13 12:18:04.576424] [0x0000007f98d14010] [LogDataTag] [0x00002ff1] [742] 1718295482836884, 1.73884, 0, 0, 0, 0, 0, 0, 0, 0, 0, 0, 0, 0, 1.8445e+13, 0.0838156, -0.183599, -0.312792, 0.998961, -0.0053543, -0.00393769, -0.0450949, 0.000155111, 0.00277673, 0.000443646, 0.00382001, 0.00149494, -0.0114699, -0.0103429, -0.0083502, -0.0901793, 0, 0, 0, 0, 0, 0, 0, 0, 0, 0, 0, 0, 0, 0, 0, 0, 0, 0, 0, 0, 0, 0, 0, 0, 0, 0, 0, 0, 0, 0, 0, 0, 0, 0, 0, 0, 0, 0, 0, 0, 0, 0, 0, 0, 0, 0, 0, 0, 0, 0, 0, 0, 0, 0, 0, 0, 0, 0, 0, 0, 0, 0, 0, 0, 0, 0, 0, 0, 0, 0, 0, 
[2024-06-13 12:18:04.586174] [0x0000007f98d14010] [LogDataTag] [0x00002ff1] [746] 1718295482836884, 1.74882, 0, 0, 0, 0, 0, 0, 0, 0, 0, 0, 0, 0, 1.8445e+13, 0.0838097, -0.183623, -0.312802, 0.998956, -0.00538859, -0.00393343, -0.0451949, -0.000130976, 0.0004685, 0.000327565, -0.00347526, -0.00203358, -0.0224936, -0.0104109, -0.00834581, -0.0903791, 0, 0, 0, 0, 0, 0, 0, 0, 0, 0, 0, 0, 0, 0, 0, 0, 0, 0, 0, 0, 0, 0, 0, 0, 0, 0, 0, 0, 0, 0, 0, 0, 0, 0, 0, 0, 0, 0, 0, 0, 0, 0, 0, 0, 0, 0, 0, 0, 0, 0, 0, 0, 0, 0, 0, 0, 0, 0, 0, 0, 0, 0, 0, 0, 0, 0, 0, 0, 0, 0, 0, 
[2024-06-13 12:18:04.596211] [0x0000007f915b79a0] [LogDataTag] [0x00002ff1] [750] 1718295482836884, 1.75885, 0, 0, 0, 0, 0, 0, 0, 0, 0, 0, 0, 0, 1.8445e+13, 0.0837917, -0.183663, -0.312822, 0.998949, -0.00542068, -0.00393596, -0.0453525, -0.000277909, 0.00544791, 0.000904188, -0.00378826, -0.00250093, 0.016223, -0.0104735, -0.00835543, -0.0906944, 0, 0, 0, 0, 0, 0, 0, 0, 0, 0, 0, 0, 0, 0, 0, 0, 0, 0, 0, 0, 0, 0, 0, 0, 0, 0, 0, 0, 0, 0, 0, 0, 0, 0, 0, 0, 0, 0, 0, 0, 0, 0, 0, 0, 0, 0, 0, 0, 0, 0, 0, 0, 0, 0, 0, 0, 0, 0, 0, 0, 0, 0, 0, 0, 0, 0, 0, 0, 0, 0, 0, 
[2024-06-13 12:18:04.606166] [0x0000007f91db89a0] [LogDataTag] [0x00002ff1] [755] 1718295482836884, 1.76885, 0, 0, 0, 0, 0, 0, 0, 0, 0, 0, 0, 0, 1.8445e+13, 0.0837812, -0.183642, -0.312832, 0.998957, -0.00538689, -0.00393908, -0.0451797, -0.0003993, 0.00773188, -0.000210905, 0.00844573, -0.00395883, 0.0512602, -0.0104071, -0.0083568, -0.0903487, 0, 0, 0, 0, 0, 0, 0, 0, 0, 0, 0, 0, 0, 0, 0, 0, 0, 0, 0, 0, 0, 0, 0, 0, 0, 0, 0, 0, 0, 0, 0, 0, 0, 0, 0, 0, 0, 0, 0, 0, 0, 0, 0, 0, 0, 0, 0, 0, 0, 0, 0, 0, 0, 0, 0, 0, 0, 0, 0, 0, 0, 0, 0, 0, 0, 0, 0, 0, 0, 0, 0, 
[2024-06-13 12:18:04.616156] [0x0000007f925b99a0] [LogDataTag] [0x00002ff1] [759] 1718295482836884, 1.77883, 0, 0, 0, 0, 0, 0, 0, 0, 0, 0, 0, 0, 1.8445e+13, 0.0837695, -0.183614, -0.312846, 0.998966, -0.00537369, -0.00390264, -0.0449675, -0.000500753, 0.00695177, -0.000140542, 0.00347482, 0.0119146, 0.0416513, -0.0103858, -0.00828059, -0.0899243, 0, 0, 0, 0, 0, 0, 0, 0, 0, 0, 0, 0, 0, 0, 0, 0, 0, 0, 0, 0, 0, 0, 0, 0, 0, 0, 0, 0, 0, 0, 0, 0, 0, 0, 0, 0, 0, 0, 0, 0, 0, 0, 0, 0, 0, 0, 0, 0, 0, 0, 0, 0, 0, 0, 0, 0, 0, 0, 0, 0, 0, 0, 0, 0, 0, 0, 0, 0, 0, 0, 0, 
[2024-06-13 12:18:04.626238] [0x0000007f98d14010] [LogDataTag] [0x00002ff1] [763] 1718295482836884, 1.78888, 0, 0, 0, 0, 0, 0, 0, 0, 0, 0, 0, 0, 1.8445e+13, 0.0837544, -0.183604, -0.31286, 0.998973, -0.00532998, -0.00387265, -0.0448354, -0.000999957, 0.00431053, -0.000109183, 0.00276396, 0.0050927, 0.0169753, -0.0103023, -0.00821539, -0.0896605, 0, 0, 0, 0, 0, 0, 0, 0, 0, 0, 0, 0, 0, 0, 0, 0, 0, 0, 0, 0, 0, 0, 0, 0, 0, 0, 0, 0, 0, 0, 0, 0, 0, 0, 0, 0, 0, 0, 0, 0, 0, 0, 0, 0, 0, 0, 0, 0, 0, 0, 0, 0, 0, 0, 0, 0, 0, 0, 0, 0, 0, 0, 0, 0, 0, 0, 0, 0, 0, 0, 0, 
[2024-06-13 12:18:04.636175] [0x0000007f915b79a0] [LogDataTag] [0x00002ff1] [768] 1718295482836884, 1.79886, 0, 0, 0, 0, 0, 0, 0, 0, 0, 0, 0, 0, 1.8445e+13, 0.0837362, -0.183616, -0.312871, 0.99897, -0.00535752, -0.00386615, -0.0448854, -0.00107157, 0.00192438, 0.000340893, -0.00480951, 0.000334914, -0.0135077, -0.0103575, -0.00820538, -0.0897605, 0, 0, 0, 0, 0, 0, 0, 0, 0, 0, 0, 0, 0, 0, 0, 0, 0, 0, 0, 0, 0, 0, 0, 0, 0, 0, 0, 0, 0, 0, 0, 0, 0, 0, 0, 0, 0, 0, 0, 0, 0, 0, 0, 0, 0, 0, 0, 0, 0, 0, 0, 0, 0, 0, 0, 0, 0, 0, 0, 0, 0, 0, 0, 0, 0, 0, 0, 0, 0, 0, 0, 
[2024-06-13 12:18:04.646362] [0x0000007f915b79a0] [LogDataTag] [0x00002ff1] [772] 1718295482836884, 1.80892, 0, 0, 0, 0, 0, 0, 0, 0, 0, 0, 0, 0, 1.8445e+13, 0.0837362, -0.183616, -0.312871, 0.99897, -0.00535752, -0.00386615, -0.0448854, -0.00107157, 0.00192438, 0.000340893, -0.00480951, 0.000334914, -0.0135077, -0.0103575, -0.00820538, -0.0897605, 0, 0, 0, 0, 0, 0, 0, 0, 0, 0, 0, 0, 0, 0, 0, 0, 0, 0, 0, 0, 0, 0, 0, 0, 0, 0, 0, 0, 0, 0, 0, 0, 0, 0, 0, 0, 0, 0, 0, 0, 0, 0, 0, 0, 0, 0, 0, 0, 0, 0, 0, 0, 0, 0, 0, 0, 0, 0, 0, 0, 0, 0, 0, 0, 0, 0, 0, 0, 0, 0, 0, 
[2024-06-13 12:18:04.656135] [0x0000007f925b99a0] [LogDataTag] [0x00002ff1] [776] 1718295482836884, 1.81882, 0, 0, 0, 0, 0, 0, 0, 0, 0, 0, 0, 0, 1.8445e+13, 0.0837017, -0.183667, -0.312868, 0.998953, -0.00538382, -0.00393027, -0.0452552, -0.00102937, 0.00189906, 0.00214276, -0.00481171, -0.00642458, -0.0366529, -0.0104012, -0.0083397, -0.0904999, 0, 0, 0, 0, 0, 0, 0, 0, 0, 0, 0, 0, 0, 0, 0, 0, 0, 0, 0, 0, 0, 0, 0, 0, 0, 0, 0, 0, 0, 0, 0, 0, 0, 0, 0, 0, 0, 0, 0, 0, 0, 0, 0, 0, 0, 0, 0, 0, 0, 0, 0, 0, 0, 0, 0, 0, 0, 0, 0, 0, 0, 0, 0, 0, 0, 0, 0, 0, 0, 0, 0, 
[2024-06-13 12:18:04.666112] [0x0000007f925b99a0] [LogDataTag] [0x00002ff1] [781] 1718295482836884, 1.82883, 0, 0, 0, 0, 0, 0, 0, 0, 0, 0, 0, 0, 1.8445e+13, 0.0836852, -0.183679, -0.312863, 0.998949, -0.00537174, -0.00394979, -0.0453433, -0.000730206, 0.00422377, 0.00150381, 0.00593651, -0.00658022, -0.00723581, -0.0103745, -0.00837852, -0.0906763, 0, 0, 0, 0, 0, 0, 0, 0, 0, 0, 0, 0, 0, 0, 0, 0, 0, 0, 0, 0, 0, 0, 0, 0, 0, 0, 0, 0, 0, 0, 0, 0, 0, 0, 0, 0, 0, 0, 0, 0, 0, 0, 0, 0, 0, 0, 0, 0, 0, 0, 0, 0, 0, 0, 0, 0, 0, 0, 0, 0, 0, 0, 0, 0, 0, 0, 0, 0, 0, 0, 0, 
[2024-06-13 12:18:04.676132] [0x0000007f915b79a0] [LogDataTag] [0x00002ff1] [785] 1718295482836884, 1.83883, 0, 0, 0, 0, 0, 0, 0, 0, 0, 0, 0, 0, 1.8445e+13, 0.0836702, -0.183664, -0.312865, 0.998953, -0.005368, -0.0039305, -0.0452705, -0.000835585, 0.00730312, 0.000377034, -0.0010864, 0.00698538, 0.0279534, -0.0103694, -0.00833888, -0.0905308, 0, 0, 0, 0, 0, 0, 0, 0, 0, 0, 0, 0, 0, 0, 0, 0, 0, 0, 0, 0, 0, 0, 0, 0, 0, 0, 0, 0, 0, 0, 0, 0, 0, 0, 0, 0, 0, 0, 0, 0, 0, 0, 0, 0, 0, 0, 0, 0, 0, 0, 0, 0, 0, 0, 0, 0, 0, 0, 0, 0, 0, 0, 0, 0, 0, 0, 0, 0, 0, 0, 0, 
[2024-06-13 12:18:04.686406] [0x0000007f98d14010] [LogDataTag] [0x00002ff1] [790] 1718295482836884, 1.84884, 0, 0, 0, 0, 0, 0, 0, 0, 0, 0, 0, 0, 1.8445e+13, 0.0836557, -0.183627, -0.312872, 0.998963, -0.00533386, -0.00391079, -0.0450373, -0.000657233, 0.00852225, 0.000250664, 0.0132088, 0.00868512, 0.0540787, -0.0103049, -0.00829401, -0.0900643, 0, 0, 0, 0, 0, 0, 0, 0, 0, 0, 0, 0, 0, 0, 0, 0, 0, 0, 0, 0, 0, 0, 0, 0, 0, 0, 0, 0, 0, 0, 0, 0, 0, 0, 0, 0, 0, 0, 0, 0, 0, 0, 0, 0, 0, 0, 0, 0, 0, 0, 0, 0, 0, 0, 0, 0, 0, 0, 0, 0, 0, 0, 0, 0, 0, 0, 0, 0, 0, 0, 0, 
[2024-06-13 12:18:04.696139] [0x0000007f91db89a0] [LogDataTag] [0x00002ff1] [794] 1718295482836884, 1.85883, 0, 0, 0, 0, 0, 0, 0, 0, 0, 0, 0, 0, 1.8445e+13, 0.0836408, -0.183595, -0.312881, 0.998972, -0.00534522, -0.00389243, -0.0448473, -0.000863553, 0.00665905, 0.000178094, -0.00452868, 0.00574622, 0.0327842, -0.0103308, -0.00825639, -0.0896841, 0, 0, 0, 0, 0, 0, 0, 0, 0, 0, 0, 0, 0, 0, 0, 0, 0, 0, 0, 0, 0, 0, 0, 0, 0, 0, 0, 0, 0, 0, 0, 0, 0, 0, 0, 0, 0, 0, 0, 0, 0, 0, 0, 0, 0, 0, 0, 0, 0, 0, 0, 0, 0, 0, 0, 0, 0, 0, 0, 0, 0, 0, 0, 0, 0, 0, 0, 0, 0, 0, 0, 
[2024-06-13 12:18:04.706125] [0x0000007f925b99a0] [LogDataTag] [0x00002ff1] [798] 1718295482836884, 1.86882, 0, 0, 0, 0, 0, 0, 0, 0, 0, 0, 0, 0, 1.8445e+13, 0.0836251, -0.183583, -0.312889, 0.998975, -0.00534074, -0.00388791, -0.0447896, -0.00106679, 0.00384014, 0.000329356, 0.000449844, -0.00282213, 3.91269e-05, -0.0103228, -0.00824636, -0.0895686, 0, 0, 0, 0, 0, 0, 0, 0, 0, 0, 0, 0, 0, 0, 0, 0, 0, 0, 0, 0, 0, 0, 0, 0, 0, 0, 0, 0, 0, 0, 0, 0, 0, 0, 0, 0, 0, 0, 0, 0, 0, 0, 0, 0, 0, 0, 0, 0, 0, 0, 0, 0, 0, 0, 0, 0, 0, 0, 0, 0, 0, 0, 0, 0, 0, 0, 0, 0, 0, 0, 0, 
[2024-06-13 12:18:04.716144] [0x0000007f915b79a0] [LogDataTag] [0x00002ff1] [803] 1718295482836884, 1.87884, 0, 0, 0, 0, 0, 0, 0, 0, 0, 0, 0, 0, 1.8445e+13, 0.0836073, -0.183597, -0.312894, 0.998967, -0.00533923, -0.0038863, -0.0449507, -0.00133661, 0.00122992, 0.000600088, 0.00154792, 0.000254967, -0.0382914, -0.0103186, -0.00824467, -0.0898911, 0, 0, 0, 0, 0, 0, 0, 0, 0, 0, 0, 0, 0, 0, 0, 0, 0, 0, 0, 0, 0, 0, 0, 0, 0, 0, 0, 0, 0, 0, 0, 0, 0, 0, 0, 0, 0, 0, 0, 0, 0, 0, 0, 0, 0, 0, 0, 0, 0, 0, 0, 0, 0, 0, 0, 0, 0, 0, 0, 0, 0, 0, 0, 0, 0, 0, 0, 0, 0, 0, 0, 
[2024-06-13 12:18:04.726155] [0x0000007f98d14010] [LogDataTag] [0x00002ff1] [807] 1718295482836884, 1.88884, 0, 0, 0, 0, 0, 0, 0, 0, 0, 0, 0, 0, 1.8445e+13, 0.0835875, -0.183622, -0.312898, 0.998956, -0.00535463, -0.00390095, -0.0451969, -0.00133039, 0.00119678, 0.000747679, -0.0006034, 0.00326292, -0.0553383, -0.010346, -0.00827787, -0.0903838, 0, 0, 0, 0, 0, 0, 0, 0, 0, 0, 0, 0, 0, 0, 0, 0, 0, 0, 0, 0, 0, 0, 0, 0, 0, 0, 0, 0, 0, 0, 0, 0, 0, 0, 0, 0, 0, 0, 0, 0, 0, 0, 0, 0, 0, 0, 0, 0, 0, 0, 0, 0, 0, 0, 0, 0, 0, 0, 0, 0, 0, 0, 0, 0, 0, 0, 0, 0, 0, 0, 0, 
[2024-06-13 12:18:04.736165] [0x0000007f91db89a0] [LogDataTag] [0x00002ff1] [811] 1718295482836884, 1.89885, 0, 0, 0, 0, 0, 0, 0, 0, 0, 0, 0, 0, 1.8445e+13, 0.0835531, -0.183628, -0.312909, 0.998949, -0.00537737, -0.00386807, -0.0453498, -0.000808783, 0.00613234, -7.06989e-06, 0.00165736, 0.00355412, 0.0148498, -0.0103931, -0.00821583, -0.09069, 0, 0, 0, 0, 0, 0, 0, 0, 0, 0, 0, 0, 0, 0, 0, 0, 0, 0, 0, 0, 0, 0, 0, 0, 0, 0, 0, 0, 0, 0, 0, 0, 0, 0, 0, 0, 0, 0, 0, 0, 0, 0, 0, 0, 0, 0, 0, 0, 0, 0, 0, 0, 0, 0, 0, 0, 0, 0, 0, 0, 0, 0, 0, 0, 0, 0, 0, 0, 0, 0, 0, 
[2024-06-13 12:18:04.746155] [0x0000007f925b99a0] [LogDataTag] [0x00002ff1] [816] 1718295482836884, 1.90885, 0, 0, 0, 0, 0, 0, 0, 0, 0, 0, 0, 0, 1.8445e+13, 0.0835402, -0.183597, -0.312917, 0.998958, -0.00536128, -0.00383165, -0.0451673, -0.000689834, 0.00761656, 0.000463575, 0.000826287, 0.00529152, 0.0435303, -0.0103658, -0.00813971, -0.0903251, 0, 0, 0, 0, 0, 0, 0, 0, 0, 0, 0, 0, 0, 0, 0, 0, 0, 0, 0, 0, 0, 0, 0, 0, 0, 0, 0, 0, 0, 0, 0, 0, 0, 0, 0, 0, 0, 0, 0, 0, 0, 0, 0, 0, 0, 0, 0, 0, 0, 0, 0, 0, 0, 0, 0, 0, 0, 0, 0, 0, 0, 0, 0, 0, 0, 0, 0, 0, 0, 0, 0, 
[2024-06-13 12:18:04.756187] [0x0000007f915b79a0] [LogDataTag] [0x00002ff1] [820] 1718295482836884, 1.91885, 0, 0, 0, 0, 0, 0, 0, 0, 0, 0, 0, 0, 1.8445e+13, 0.0835267, -0.183561, -0.312919, 0.998967, -0.00534209, -0.00383077, -0.0449572, -0.000796486, 0.00747249, 0.00098493, 0.00897557, -0.00388277, 0.0446594, -0.0103292, -0.00813406, -0.0899047, 0, 0, 0, 0, 0, 0, 0, 0, 0, 0, 0, 0, 0, 0, 0, 0, 0, 0, 0, 0, 0, 0, 0, 0, 0, 0, 0, 0, 0, 0, 0, 0, 0, 0, 0, 0, 0, 0, 0, 0, 0, 0, 0, 0, 0, 0, 0, 0, 0, 0, 0, 0, 0, 0, 0, 0, 0, 0, 0, 0, 0, 0, 0, 0, 0, 0, 0, 0, 0, 0, 0, 
[2024-06-13 12:18:04.766237] [0x0000007f98d14010] [LogDataTag] [0x00002ff1] [824] 1718295482836884, 1.92888, 0, 0, 0, 0, 0, 0, 0, 0, 0, 0, 0, 0, 1.8445e+13, 0.0835124, -0.183537, -0.31292, 0.998974, -0.00533803, -0.00384578, -0.0448184, -0.000828884, 0.00495717, 0.000634841, 0.00166509, 0.00186851, 0.0247542, -0.0103209, -0.00816224, -0.0896266, 0, 0, 0, 0, 0, 0, 0, 0, 0, 0, 0, 0, 0, 0, 0, 0, 0, 0, 0, 0, 0, 0, 0, 0, 0, 0, 0, 0, 0, 0, 0, 0, 0, 0, 0, 0, 0, 0, 0, 0, 0, 0, 0, 0, 0, 0, 0, 0, 0, 0, 0, 0, 0, 0, 0, 0, 0, 0, 0, 0, 0, 0, 0, 0, 0, 0, 0, 0, 0, 0, 0, 
[2024-06-13 12:18:04.776225] [0x0000007f91db89a0] [LogDataTag] [0x00002ff1] [829] 1718295482836884, 1.93885, 0, 0, 0, 0, 0, 0, 0, 0, 0, 0, 0, 0, 1.8445e+13, 0.0834972, -0.183533, -0.312921, 0.998971, -0.00534616, -0.00384276, -0.0448729, -0.00111767, 0.00292831, 0.000899868, -0.00147607, -0.00249484, -0.0236777, -0.010337, -0.0081575, -0.0897358, 0, 0, 0, 0, 0, 0, 0, 0, 0, 0, 0, 0, 0, 0, 0, 0, 0, 0, 0, 0, 0, 0, 0, 0, 0, 0, 0, 0, 0, 0, 0, 0, 0, 0, 0, 0, 0, 0, 0, 0, 0, 0, 0, 0, 0, 0, 0, 0, 0, 0, 0, 0, 0, 0, 0, 0, 0, 0, 0, 0, 0, 0, 0, 0, 0, 0, 0, 0, 0, 0, 0, 
[2024-06-13 12:18:04.786225] [0x0000007f925b99a0] [LogDataTag] [0x00002ff1] [834] 1718295482836884, 1.94888, 0, 0, 0, 0, 0, 0, 0, 0, 0, 0, 0, 0, 1.8445e+13, 0.0834791, -0.183543, -0.312921, 0.998963, -0.00537598, -0.0038356, -0.0450581, -0.00143196, 0.00213663, 0.000867907, -0.00933134, 0.0002184, -0.0455038, -0.0103957, -0.00814779, -0.0901063, 0, 0, 0, 0, 0, 0, 0, 0, 0, 0, 0, 0, 0, 0, 0, 0, 0, 0, 0, 0, 0, 0, 0, 0, 0, 0, 0, 0, 0, 0, 0, 0, 0, 0, 0, 0, 0, 0, 0, 0, 0, 0, 0, 0, 0, 0, 0, 0, 0, 0, 0, 0, 0, 0, 0, 0, 0, 0, 0, 0, 0, 0, 0, 0, 0, 0, 0, 0, 0, 0, 0, 
[2024-06-13 12:18:04.796212] [0x0000007f915b79a0] [LogDataTag] [0x00002ff1] [838] 1718295482836884, 1.95888, 0, 0, 0, 0, 0, 0, 0, 0, 0, 0, 0, 0, 1.8445e+13, 0.0834595, -0.183554, -0.312921, 0.998953, -0.00539716, -0.00385368, -0.0452679, -0.00140188, 0.00311767, 0.000685365, 0.0024544, -0.00374542, -0.0419359, -0.0104347, -0.00818802, -0.0905261, 0, 0, 0, 0, 0, 0, 0, 0, 0, 0, 0, 0, 0, 0, 0, 0, 0, 0, 0, 0, 0, 0, 0, 0, 0, 0, 0, 0, 0, 0, 0, 0, 0, 0, 0, 0, 0, 0, 0, 0, 0, 0, 0, 0, 0, 0, 0, 0, 0, 0, 0, 0, 0, 0, 0, 0, 0, 0, 0, 0, 0, 0, 0, 0, 0, 0, 0, 0, 0, 0, 0, 
[2024-06-13 12:18:04.806530] [0x0000007f98d14010] [LogDataTag] [0x00002ff1] [843] 1718295482836884, 1.96917, 0, 0, 0, 0, 0, 0, 0, 0, 0, 0, 0, 0, 1.8445e+13, 0.0834417, -0.183547, -0.312923, 0.998949, -0.00539852, -0.00388113, -0.0453592, -0.00124321, 0.00584849, 0.000423334, 0.00195629, -0.00556647, -0.00524792, -0.0104342, -0.00824394, -0.0907086, 0, 0, 0, 0, 0, 0, 0, 0, 0, 0, 0, 0, 0, 0, 0, 0, 0, 0, 0, 0, 0, 0, 0, 0, 0, 0, 0, 0, 0, 0, 0, 0, 0, 0, 0, 0, 0, 0, 0, 0, 0, 0, 0, 0, 0, 0, 0, 0, 0, 0, 0, 0, 0, 0, 0, 0, 0, 0, 0, 0, 0, 0, 0, 0, 0, 0, 0, 0, 0, 0, 0, 
[2024-06-13 12:18:04.816605] [0x0000007f91db89a0] [LogDataTag] [0x00002ff1] [847] 1718295482836884, 1.97925, 0, 0, 0, 0, 0, 0, 0, 0, 0, 0, 0, 0, 1.8445e+13, 0.0834112, -0.183477, -0.312936, 0.99896, -0.00538817, -0.00386591, -0.0451118, -0.000992343, 0.00841535, -0.000227751, -0.000877485, 0.00462693, 0.0390403, -0.0104169, -0.00821, -0.0902135, 0, 0, 0, 0, 0, 0, 0, 0, 0, 0, 0, 0, 0, 0, 0, 0, 0, 0, 0, 0, 0, 0, 0, 0, 0, 0, 0, 0, 0, 0, 0, 0, 0, 0, 0, 0, 0, 0, 0, 0, 0, 0, 0, 0, 0, 0, 0, 0, 0, 0, 0, 0, 0, 0, 0, 0, 0, 0, 0, 0, 0, 0, 0, 0, 0, 0, 0, 0, 0, 0, 0, 
[2024-06-13 12:18:04.826229] [0x0000007f925b99a0] [LogDataTag] [0x00002ff1] [851] 1718295482836884, 1.98887, 0, 0, 0, 0, 0, 0, 0, 0, 0, 0, 0, 0, 1.8445e+13, 0.0833967, -0.183431, -0.312946, 0.998969, -0.00535865, -0.0038406, -0.0449235, -0.00116908, 0.00772887, -1.79806e-05, 0.00389136, 0.00422406, 0.0402615, -0.0103617, -0.00815483, -0.0898369, 0, 0, 0, 0, 0, 0, 0, 0, 0, 0, 0, 0, 0, 0, 0, 0, 0, 0, 0, 0, 0, 0, 0, 0, 0, 0, 0, 0, 0, 0, 0, 0, 0, 0, 0, 0, 0, 0, 0, 0, 0, 0, 0, 0, 0, 0, 0, 0, 0, 0, 0, 0, 0, 0, 0, 0, 0, 0, 0, 0, 0, 0, 0, 0, 0, 0, 0, 0, 0, 0, 0, 
[2024-06-13 12:18:04.836555] [0x0000007f915b79a0] [LogDataTag] [0x00002ff1] [856] 1718295482836884, 1.99887, 0, 0, 0, 0, 0, 0, 0, 0, 0, 0, 0, 0, 1.8445e+13, 0.0833806, -0.183403, -0.31295, 0.998971, -0.00534459, -0.00386246, -0.0448842, -0.00141513, 0.00507564, 0.000418019, 0.00262522, -0.00747312, 0.00201246, -0.010332, -0.00819684, -0.0897581, 0, 0, 0, 0, 0, 0, 0, 0, 0, 0, 0, 0, 0, 0, 0, 0, 0, 0, 0, 0, 0, 0, 0, 0, 0, 0, 0, 0, 0, 0, 0, 0, 0, 0, 0, 0, 0, 0, 0, 0, 0, 0, 0, 0, 0, 0, 0, 0, 0, 0, 0, 0, 0, 0, 0, 0, 0, 0, 0, 0, 0, 0, 0, 0, 0, 0, 0, 0, 0, 0, 0, 
[2024-06-13 12:18:04.846240] [0x0000007f98d14010] [LogDataTag] [0x00002ff1] [859] 1718295482836884, 2.00888, 0, 0, 0, 0, 0, 0, 0, 0, 0, 0, 0, 0, 1.8445e+13, 0.0833628, -0.183397, -0.312951, 0.998966, -0.00535679, -0.00386018, -0.0449757, -0.00162749, 0.00320893, 0.000397847, -0.00551305, -0.00192776, -0.0246477, -0.0103558, -0.00819432, -0.0899412, 0, 0, 0, 0, 0, 0, 0, 0, 0, 0, 0, 0, 0, 0, 0, 0, 0, 0, 0, 0, 0, 0, 0, 0, 0, 0, 0, 0, 0, 0, 0, 0, 0, 0, 0, 0, 0, 0, 0, 0, 0, 0, 0, 0, 0, 0, 0, 0, 0, 0, 0, 0, 0, 0, 0, 0, 0, 0, 0, 0, 0, 0, 0, 0, 0, 0, 0, 0, 0, 0, 0, 
[2024-06-13 12:18:04.856257] [0x0000007f91db89a0] [LogDataTag] [0x00002ff1] [864] 1718295482836884, 2.01889, 0, 0, 0, 0, 0, 0, 0, 0, 0, 0, 0, 0, 1.8445e+13, 0.0833448, -0.183401, -0.312952, 0.998956, -0.0053531, -0.00388508, -0.0451969, -0.00171479, 0.00314511, 0.000932005, 0.00197381, -0.00679921, -0.05288, -0.0103444, -0.00824603, -0.0903839, 0, 0, 0, 0, 0, 0, 0, 0, 0, 0, 0, 0, 0, 0, 0, 0, 0, 0, 0, 0, 0, 0, 0, 0, 0, 0, 0, 0, 0, 0, 0, 0, 0, 0, 0, 0, 0, 0, 0, 0, 0, 0, 0, 0, 0, 0, 0, 0, 0, 0, 0, 0, 0, 0, 0, 0, 0, 0, 0, 0, 0, 0, 0, 0, 0, 0, 0, 0, 0, 0, 0, 
[2024-06-13 12:18:04.866255] [0x0000007f925b99a0] [LogDataTag] [0x00002ff1] [868] 1718295482836884, 2.02888, 0, 0, 0, 0, 0, 0, 0, 0, 0, 0, 0, 0, 1.8445e+13, 0.083326, -0.183394, -0.312949, 0.998949, -0.00538644, -0.00389341, -0.0453626, -0.00175746, 0.00513134, 0.000939286, -0.00118799, -0.00209298, -0.0374881, -0.0104089, -0.00826742, -0.0907154, 0, 0, 0, 0, 0, 0, 0, 0, 0, 0, 0, 0, 0, 0, 0, 0, 0, 0, 0, 0, 0, 0, 0, 0, 0, 0, 0, 0, 0, 0, 0, 0, 0, 0, 0, 0, 0, 0, 0, 0, 0, 0, 0, 0, 0, 0, 0, 0, 0, 0, 0, 0, 0, 0, 0, 0, 0, 0, 0, 0, 0, 0, 0, 0, 0, 0, 0, 0, 0, 0, 0, 
[2024-06-13 12:18:04.876244] [0x0000007f915b79a0] [LogDataTag] [0x00002ff1] [872] 1718295482836884, 2.03887, 0, 0, 0, 0, 0, 0, 0, 0, 0, 0, 0, 0, 1.8445e+13, 0.0833087, -0.183369, -0.312948, 0.998948, -0.00538383, -0.00389395, -0.0453817, -0.00157204, 0.00737489, 0.000649277, 0.000877257, -0.00685409, 0.00553153, -0.0104034, -0.00826845, -0.0907536, 0, 0, 0, 0, 0, 0, 0, 0, 0, 0, 0, 0, 0, 0, 0, 0, 0, 0, 0, 0, 0, 0, 0, 0, 0, 0, 0, 0, 0, 0, 0, 0, 0, 0, 0, 0, 0, 0, 0, 0, 0, 0, 0, 0, 0, 0, 0, 0, 0, 0, 0, 0, 0, 0, 0, 0, 0, 0, 0, 0, 0, 0, 0, 0, 0, 0, 0, 0, 0, 0, 0, 
[2024-06-13 12:18:04.886236] [0x0000007f98d14010] [LogDataTag] [0x00002ff1] [877] 1718295482836884, 2.04891, 0, 0, 0, 0, 0, 0, 0, 0, 0, 0, 0, 0, 1.8445e+13, 0.0832945, -0.183327, -0.312949, 0.998954, -0.00537056, -0.00387491, -0.0452484, -0.00132051, 0.00910328, 0.00040595, 0.00136068, 0.00505617, 0.034251, -0.0103798, -0.00822783, -0.0904871, 0, 0, 0, 0, 0, 0, 0, 0, 0, 0, 0, 0, 0, 0, 0, 0, 0, 0, 0, 0, 0, 0, 0, 0, 0, 0, 0, 0, 0, 0, 0, 0, 0, 0, 0, 0, 0, 0, 0, 0, 0, 0, 0, 0, 0, 0, 0, 0, 0, 0, 0, 0, 0, 0, 0, 0, 0, 0, 0, 0, 0, 0, 0, 0, 0, 0, 0, 0, 0, 0, 0, 
[2024-06-13 12:18:04.896361] [0x0000007f91db89a0] [LogDataTag] [0x00002ff1] [881] 1718295482836884, 2.05905, 0, 0, 0, 0, 0, 0, 0, 0, 0, 0, 0, 0, 1.8445e+13, 0.0832824, -0.183278, -0.312951, 0.998963, -0.00535453, -0.00385613, -0.0450583, -0.00129299, 0.00881886, 0.000417915, 0.00431525, 0.00690702, 0.0431353, -0.010351, -0.00818688, -0.0901066, 0, 0, 0, 0, 0, 0, 0, 0, 0, 0, 0, 0, 0, 0, 0, 0, 0, 0, 0, 0, 0, 0, 0, 0, 0, 0, 0, 0, 0, 0, 0, 0, 0, 0, 0, 0, 0, 0, 0, 0, 0, 0, 0, 0, 0, 0, 0, 0, 0, 0, 0, 0, 0, 0, 0, 0, 0, 0, 0, 0, 0, 0, 0, 0, 0, 0, 0, 0, 0, 0, 0, 
[2024-06-13 12:18:04.906158] [0x0000007f91db89a0] [LogDataTag] [0x00002ff1] [884] 1718295482836884, 2.06885, 0, 0, 0, 0, 0, 0, 0, 0, 0, 0, 0, 0, 1.8445e+13, 0.0832824, -0.183278, -0.312951, 0.998963, -0.00535453, -0.00385613, -0.0450583, -0.00129299, 0.00881886, 0.000417915, 0.00431525, 0.00690702, 0.0431353, -0.010351, -0.00818688, -0.0901066, 0, 0, 0, 0, 0, 0, 0, 0, 0, 0, 0, 0, 0, 0, 0, 0, 0, 0, 0, 0, 0, 0, 0, 0, 0, 0, 0, 0, 0, 0, 0, 0, 0, 0, 0, 0, 0, 0, 0, 0, 0, 0, 0, 0, 0, 0, 0, 0, 0, 0, 0, 0, 0, 0, 0, 0, 0, 0, 0, 0, 0, 0, 0, 0, 0, 0, 0, 0, 0, 0, 0, 
[2024-06-13 12:18:04.916157] [0x0000007f98d14010] [LogDataTag] [0x00002ff1] [890] 1718295482836884, 2.07884, 0, 0, 0, 0, 0, 0, 0, 0, 0, 0, 0, 0, 1.8445e+13, 0.0832684, -0.18325, -0.312953, 0.998966, -0.00533035, -0.00384965, -0.0449778, -0.00175195, 0.00498539, 0.000351572, 0.00308708, 0.00972581, 0.0030095, -0.0103039, -0.00817093, -0.0899458, 0, 0, 0, 0, 0, 0, 0, 0, 0, 0, 0, 0, 0, 0, 0, 0, 0, 0, 0, 0, 0, 0, 0, 0, 0, 0, 0, 0, 0, 0, 0, 0, 0, 0, 0, 0, 0, 0, 0, 0, 0, 0, 0, 0, 0, 0, 0, 0, 0, 0, 0, 0, 0, 0, 0, 0, 0, 0, 0, 0, 0, 0, 0, 0, 0, 0, 0, 0, 0, 0, 0, 
[2024-06-13 12:18:04.926134] [0x0000007f91db89a0] [LogDataTag] [0x00002ff1] [894] 1718295482836884, 2.08878, 0, 0, 0, 0, 0, 0, 0, 0, 0, 0, 0, 0, 1.8445e+13, 0.0832111, -0.1832, -0.312989, 0.998958, -0.00537507, -0.0038826, -0.0451537, -0.00277629, 0.00630168, -0.000582013, 0.014821, 0.00105655, 0.00362342, -0.0103888, -0.00824261, -0.0902974, 0, 0, 0, 0, 0, 0, 0, 0, 0, 0, 0, 0, 0, 0, 0, 0, 0, 0, 0, 0, 0, 0, 0, 0, 0, 0, 0, 0, 0, 0, 0, 0, 0, 0, 0, 0, 0, 0, 0, 0, 0, 0, 0, 0, 0, 0, 0, 0, 0, 0, 0, 0, 0, 0, 0, 0, 0, 0, 0, 0, 0, 0, 0, 0, 0, 0, 0, 0, 0, 0, 0, 
[2024-06-13 12:18:04.936164] [0x0000007f98d14010] [LogDataTag] [0x00002ff1] [899] 1718295482836884, 2.09883, 0, 0, 0, 0, 0, 0, 0, 0, 0, 0, 0, 0, 1.8445e+13, 0.0831914, -0.183172, -0.313002, 0.998958, -0.00536603, -0.00386724, -0.0451524, -0.00216804, 0.00767808, -0.00131542, -0.000503192, 0.00051153, 0.00391156, -0.0103722, -0.00821109, -0.0902949, 0, 0, 0, 0, 0, 0, 0, 0, 0, 0, 0, 0, 0, 0, 0, 0, 0, 0, 0, 0, 0, 0, 0, 0, 0, 0, 0, 0, 0, 0, 0, 0, 0, 0, 0, 0, 0, 0, 0, 0, 0, 0, 0, 0, 0, 0, 0, 0, 0, 0, 0, 0, 0, 0, 0, 0, 0, 0, 0, 0, 0, 0, 0, 0, 0, 0, 0, 0, 0, 0, 0, 
[2024-06-13 12:18:04.946137] [0x0000007f915b79a0] [LogDataTag] [0x00002ff1] [903] 1718295482836884, 2.10881, 0, 0, 0, 0, 0, 0, 0, 0, 0, 0, 0, 0, 1.8445e+13, 0.0831757, -0.18314, -0.313019, 0.998961, -0.00535839, -0.00387358, -0.0450871, -0.00221185, 0.00754317, -0.00111696, 0.00469935, 0.000787383, 0.0113403, -0.0103569, -0.0082224, -0.0901641, 0, 0, 0, 0, 0, 0, 0, 0, 0, 0, 0, 0, 0, 0, 0, 0, 0, 0, 0, 0, 0, 0, 0, 0, 0, 0, 0, 0, 0, 0, 0, 0, 0, 0, 0, 0, 0, 0, 0, 0, 0, 0, 0, 0, 0, 0, 0, 0, 0, 0, 0, 0, 0, 0, 0, 0, 0, 0, 0, 0, 0, 0, 0, 0, 0, 0, 0, 0, 0, 0, 0, 
[2024-06-13 12:18:04.956166] [0x0000007f925b99a0] [LogDataTag] [0x00002ff1] [908] 1718295482836884, 2.11887, 0, 0, 0, 0, 0, 0, 0, 0, 0, 0, 0, 0, 1.8445e+13, 0.0831588, -0.183111, -0.313027, 0.998963, -0.00536864, -0.00385409, -0.0450491, -0.0022411, 0.00666791, -4.36908e-06, -0.00681786, 0.0028537, 0.00532399, -0.0103794, -0.00818398, -0.0900882, 0, 0, 0, 0, 0, 0, 0, 0, 0, 0, 0, 0, 0, 0, 0, 0, 0, 0, 0, 0, 0, 0, 0, 0, 0, 0, 0, 0, 0, 0, 0, 0, 0, 0, 0, 0, 0, 0, 0, 0, 0, 0, 0, 0, 0, 0, 0, 0, 0, 0, 0, 0, 0, 0, 0, 0, 0, 0, 0, 0, 0, 0, 0, 0, 0, 0, 0, 0, 0, 0, 0, 
