[2024-06-13 11:56:33.143795] [0x0000007f887dd010] [LogDataTag] [0x00000af8] [1] Initial timestamp, Current time [s], User-defined position x [m], User-defined position y [m], User-defined position z [m], User-defined velocity x [m/s], User-defined velocity y [m/s], User-defined velocity z [m/s], User-defined acceleration x [m/s^2], User-defined acceleration y [m/s^2], User-defined acceleration z [m/s^2], User-defined yaw [rad], User-defined yaw_dot [rad/s], User-defined yaw_dot_dot [rad/s^2], Odometry time [s], Position x [m], Position y [m], Position z [m], Quaternion q0 [-], Quaternion q1 [-], Quaternion q2 [-], Quaternion q3 [-], Velocity x [m/s], Velocity y [m/s], Velocity z [m/s], Angular velocity x [rad/s], Angular velocity y [rad/s], Angular velocity z [rad/s], Roll [rad], Pitch [rad], Yaw [rad], Algorithm execution time [us], Mu translational raw x [N], Mu translational raw y [N], Mu translational raw z [N], Mu translational x [N], Mu translational y [N], Mu translational z [N], U control input U1 [N], U control input U2 [Nm], U control input U3 [Nm], U control input U4 [Nm], Roll reference [rad], Pitch reference [rad], Roll_dot reference [rad/s], Pitch_dot reference [rad/s], Roll_dot_dot reference [rad/s^2], Pitch_dot_dot reference [rad/s^2], Roll_dot [rad/s], Pitch_dot [rad/s], Yaw_dot [rad/s], Thrust motors QUADCOPTER T1 [N], Thrust motors QUADCOPTER T2 [N], Thrust motors QUADCOPTER T3 [N], Thrust motors QUADCOPTER T4 [N], Thrust motors normalized QUADCOPTER T1 [-], Thrust motors normalized QUADCOPTER T2 [-], Thrust motors normalized QUADCOPTER T3 [-], Thrust motors normalized QUADCOPTER T4 [-], Thrust motors X8COPTER T1 [N], Thrust motors X8COPTER T2 [N], Thrust motors X8COPTER T3 [N], Thrust motors X8COPTER T4 [N], Thrust motors X8COPTER T5 [N], Thrust motors X8COPTER T6 [N], Thrust motors X8COPTER T7 [N], Thrust motors X8COPTER T8 [N], Thrust motors normalized X8COPTER T1 [-], Thrust motors normalized X8COPTER T2 [-], Thrust motors normalized X8COPTER T3 [-], Thrust motors normalized X8COPTER T4 [-], Thrust motors normalized X8COPTER T5 [-], Thrust motors normalized X8COPTER T6 [-], Thrust motors normalized X8COPTER T7 [-], Thrust motors normalized X8COPTER T8 [-], Roll error [rad], Pitch error [rad], Yaw error [rad], Outer loop Proportional term x [-], Outer loop Proportional term y [-], Outer loop Proportional term z [-], Outer loop Integral term x [-], Outer loop Integral term y [-], Outer loop Integral term z [-], Outer loop Derivative term x [-], Outer loop Derivative term y [-], Outer loop Derivative term z [-], Outer loop Dynamic Inversion term x [-], Outer loop Dynamic Inversion term y [-], Outer loop Dynamic Inversion term z [-], Inner loop Proportional term x [-], Inner loop Proportional term y [-], Inner loop Proportional term z [-], Inner loop Integral term x [-], Inner loop Integral term y [-], Inner loop Integral term z [-], Inner loop Derivative term x [-], Inner loop Derivative term y [-], Inner loop Derivative term z [-], Inner loop Dynamic Inversion term x [-], Inner loop Dynamic Inversion term y [-], Inner loop Dynamic Inversion term z [-], 
[2024-06-13 11:56:33.192659] [0x0000007f810809a0] [LogDataTag] [0x00000af8] [4] 1718294193138008, 0.053808, 0, 0, 0, 0, 0, 0, 0, 0, 0, 0, 0, 0, 1.8445e+13, 0.0987908, -0.130783, -0.297053, 0.998981, -0.00891576, -0.0171254, -0.0407897, -0.00112694, 0.00149559, 0.00441264, 0.000111394, -0.000921312, 0.000274474, -0.016427, -0.0349504, -0.0813302, 0, 0, 0, 0, 0, 0, 0, 0, 0, 0, 0, 0, 0, 0, 0, 0, 0, 0, 0, 0, 0, 0, 0, 0, 0, 0, 0, 0, 0, 0, 0, 0, 0, 0, 0, 0, 0, 0, 0, 0, 0, 0, 0, 0, 0, 0, 0, 0, 0, 0, 0, 0, 0, 0, 0, 0, 0, 0, 0, 0, 0, 0, 0, 0, 0, 0, 0, 0, 0, 0, 0, 
[2024-06-13 11:56:33.193669] [0x0000007f810809a0] [LogDataTag] [0x00000af8] [5] 1718294193138008, 0.055185, 0, 0, 0, 0, 0, 0, 0, 0, 0, 0, 0, 0, 1.8445e+13, 0.0987833, -0.130786, -0.297255, 0.998981, -0.00891992, -0.0171296, -0.0407876, -0.00107717, 0.00151509, 0.00445786, -0.000440417, -0.000242862, 0.000217357, -0.0164351, -0.0349592, -0.0813257, 0, 0, 0, 0, 0, 0, 0, 0, 0, 0, 0, 0, 0, 0, 0, 0, 0, 0, 0, 0, 0, 0, 0, 0, 0, 0, 0, 0, 0, 0, 0, 0, 0, 0, 0, 0, 0, 0, 0, 0, 0, 0, 0, 0, 0, 0, 0, 0, 0, 0, 0, 0, 0, 0, 0, 0, 0, 0, 0, 0, 0, 0, 0, 0, 0, 0, 0, 0, 0, 0, 0, 
[2024-06-13 11:56:33.202714] [0x0000007f818819a0] [LogDataTag] [0x00000af8] [9] 1718294193138008, 0.064182, 0, 0, 0, 0, 0, 0, 0, 0, 0, 0, 0, 0, 1.8445e+13, 0.0987833, -0.130786, -0.297255, 0.998981, -0.00891992, -0.0171296, -0.0407876, -0.00107717, 0.00151509, 0.00445786, -0.000440417, -0.000242862, 0.000217357, -0.0164351, -0.0349592, -0.0813257, 0, 0, 0, 0, 0, 0, 0, 0, 0, 0, 0, 0, 0, 0, 0, 0, 0, 0, 0, 0, 0, 0, 0, 0, 0, 0, 0, 0, 0, 0, 0, 0, 0, 0, 0, 0, 0, 0, 0, 0, 0, 0, 0, 0, 0, 0, 0, 0, 0, 0, 0, 0, 0, 0, 0, 0, 0, 0, 0, 0, 0, 0, 0, 0, 0, 0, 0, 0, 0, 0, 0, 
[2024-06-13 11:56:33.212576] [0x0000007f818819a0] [LogDataTag] [0x00000af8] [14] 1718294193138008, 0.074118, 0, 0, 0, 0, 0, 0, 0, 0, 0, 0, 0, 0, 1.8445e+13, 0.0987789, -0.130786, -0.297337, 0.998981, -0.00892069, -0.0171336, -0.0407908, -0.00107439, 0.00153528, 0.00446901, -0.000170373, -0.000469139, -0.000968296, -0.0164362, -0.0349671, -0.081332, 0, 0, 0, 0, 0, 0, 0, 0, 0, 0, 0, 0, 0, 0, 0, 0, 0, 0, 0, 0, 0, 0, 0, 0, 0, 0, 0, 0, 0, 0, 0, 0, 0, 0, 0, 0, 0, 0, 0, 0, 0, 0, 0, 0, 0, 0, 0, 0, 0, 0, 0, 0, 0, 0, 0, 0, 0, 0, 0, 0, 0, 0, 0, 0, 0, 0, 0, 0, 0, 0, 0, 
[2024-06-13 11:56:33.222654] [0x0000007f810809a0] [LogDataTag] [0x00000af8] [19] 1718294193138008, 0.084126, 0, 0, 0, 0, 0, 0, 0, 0, 0, 0, 0, 0, 1.8445e+13, 0.0987695, -0.130782, -0.297612, 0.998981, -0.00892015, -0.0171308, -0.0407895, -0.00105213, 0.00153495, 0.00443738, -2.96855e-05, 0.000624786, 0.000787394, -0.0164354, -0.0349616, -0.0813295, 0, 0, 0, 0, 0, 0, 0, 0, 0, 0, 0, 0, 0, 0, 0, 0, 0, 0, 0, 0, 0, 0, 0, 0, 0, 0, 0, 0, 0, 0, 0, 0, 0, 0, 0, 0, 0, 0, 0, 0, 0, 0, 0, 0, 0, 0, 0, 0, 0, 0, 0, 0, 0, 0, 0, 0, 0, 0, 0, 0, 0, 0, 0, 0, 0, 0, 0, 0, 0, 0, 0, 
[2024-06-13 11:56:33.232775] [0x0000007f810809a0] [LogDataTag] [0x00000af8] [24] 1718294193138008, 0.094348, 0, 0, 0, 0, 0, 0, 0, 0, 0, 0, 0, 0, 1.8445e+13, 0.0987695, -0.130782, -0.297612, 0.998981, -0.00892015, -0.0171308, -0.0407895, -0.00105213, 0.00153495, 0.00443738, -2.96855e-05, 0.000624786, 0.000787394, -0.0164354, -0.0349616, -0.0813295, 0, 0, 0, 0, 0, 0, 0, 0, 0, 0, 0, 0, 0, 0, 0, 0, 0, 0, 0, 0, 0, 0, 0, 0, 0, 0, 0, 0, 0, 0, 0, 0, 0, 0, 0, 0, 0, 0, 0, 0, 0, 0, 0, 0, 0, 0, 0, 0, 0, 0, 0, 0, 0, 0, 0, 0, 0, 0, 0, 0, 0, 0, 0, 0, 0, 0, 0, 0, 0, 0, 0, 
[2024-06-13 11:56:33.242674] [0x0000007f887dd010] [LogDataTag] [0x00000af8] [28] 1718294193138008, 0.104149, 0, 0, 0, 0, 0, 0, 0, 0, 0, 0, 0, 0, 1.8445e+13, 0.0987585, -0.130774, -0.297825, 0.998981, -0.00892472, -0.017135, -0.0407878, -0.00106061, 0.00150305, 0.00446938, 4.95913e-05, -2.02696e-05, -0.000185256, -0.0164443, -0.0349703, -0.0813258, 0, 0, 0, 0, 0, 0, 0, 0, 0, 0, 0, 0, 0, 0, 0, 0, 0, 0, 0, 0, 0, 0, 0, 0, 0, 0, 0, 0, 0, 0, 0, 0, 0, 0, 0, 0, 0, 0, 0, 0, 0, 0, 0, 0, 0, 0, 0, 0, 0, 0, 0, 0, 0, 0, 0, 0, 0, 0, 0, 0, 0, 0, 0, 0, 0, 0, 0, 0, 0, 0, 0, 
[2024-06-13 11:56:33.252677] [0x0000007f887dd010] [LogDataTag] [0x00000af8] [32] 1718294193138008, 0.114147, 0, 0, 0, 0, 0, 0, 0, 0, 0, 0, 0, 0, 1.8445e+13, 0.0987585, -0.130774, -0.297825, 0.998981, -0.00892472, -0.017135, -0.0407878, -0.00106061, 0.00150305, 0.00446938, 4.95913e-05, -2.02696e-05, -0.000185256, -0.0164443, -0.0349703, -0.0813258, 0, 0, 0, 0, 0, 0, 0, 0, 0, 0, 0, 0, 0, 0, 0, 0, 0, 0, 0, 0, 0, 0, 0, 0, 0, 0, 0, 0, 0, 0, 0, 0, 0, 0, 0, 0, 0, 0, 0, 0, 0, 0, 0, 0, 0, 0, 0, 0, 0, 0, 0, 0, 0, 0, 0, 0, 0, 0, 0, 0, 0, 0, 0, 0, 0, 0, 0, 0, 0, 0, 0, 
[2024-06-13 11:56:33.262612] [0x0000007f818819a0] [LogDataTag] [0x00000af8] [37] 1718294193138008, 0.124131, 0, 0, 0, 0, 0, 0, 0, 0, 0, 0, 0, 0, 1.8445e+13, 0.0987457, -0.130764, -0.298019, 0.998981, -0.00892526, -0.0171338, -0.0407863, -0.0011154, 0.00156102, 0.00449823, -0.000150728, -0.000462158, 0.000540119, -0.0164455, -0.0349678, -0.0813229, 0, 0, 0, 0, 0, 0, 0, 0, 0, 0, 0, 0, 0, 0, 0, 0, 0, 0, 0, 0, 0, 0, 0, 0, 0, 0, 0, 0, 0, 0, 0, 0, 0, 0, 0, 0, 0, 0, 0, 0, 0, 0, 0, 0, 0, 0, 0, 0, 0, 0, 0, 0, 0, 0, 0, 0, 0, 0, 0, 0, 0, 0, 0, 0, 0, 0, 0, 0, 0, 0, 0, 
[2024-06-13 11:56:33.272592] [0x0000007f887dd010] [LogDataTag] [0x00000af8] [41] 1718294193138008, 0.134124, 0, 0, 0, 0, 0, 0, 0, 0, 0, 0, 0, 0, 1.8445e+13, 0.0987524, -0.130782, -0.298112, 0.998981, -0.00892344, -0.0171315, -0.0407851, -0.00105991, 0.00147017, 0.00455247, 0.00079098, 0.000332129, -0.000187812, -0.0164421, -0.0349631, -0.0813205, 0, 0, 0, 0, 0, 0, 0, 0, 0, 0, 0, 0, 0, 0, 0, 0, 0, 0, 0, 0, 0, 0, 0, 0, 0, 0, 0, 0, 0, 0, 0, 0, 0, 0, 0, 0, 0, 0, 0, 0, 0, 0, 0, 0, 0, 0, 0, 0, 0, 0, 0, 0, 0, 0, 0, 0, 0, 0, 0, 0, 0, 0, 0, 0, 0, 0, 0, 0, 0, 0, 0, 
[2024-06-13 11:56:33.282603] [0x0000007f810809a0] [LogDataTag] [0x00000af8] [46] 1718294193138008, 0.144129, 0, 0, 0, 0, 0, 0, 0, 0, 0, 0, 0, 0, 1.8445e+13, 0.0987586, -0.1308, -0.298259, 0.998981, -0.00892682, -0.0171307, -0.0407871, -0.00104004, 0.00144365, 0.00449542, -0.000548902, -0.000397409, -0.00106499, -0.0164488, -0.0349619, -0.0813244, 0, 0, 0, 0, 0, 0, 0, 0, 0, 0, 0, 0, 0, 0, 0, 0, 0, 0, 0, 0, 0, 0, 0, 0, 0, 0, 0, 0, 0, 0, 0, 0, 0, 0, 0, 0, 0, 0, 0, 0, 0, 0, 0, 0, 0, 0, 0, 0, 0, 0, 0, 0, 0, 0, 0, 0, 0, 0, 0, 0, 0, 0, 0, 0, 0, 0, 0, 0, 0, 0, 0, 
[2024-06-13 11:56:33.292703] [0x0000007f820829a0] [LogDataTag] [0x00000af8] [51] 1718294193138008, 0.154185, 0, 0, 0, 0, 0, 0, 0, 0, 0, 0, 0, 0, 1.8445e+13, 0.0987639, -0.130815, -0.298389, 0.998981, -0.0089262, -0.017132, -0.0407881, -0.000992887, 0.00135571, 0.00450748, -1.35973e-07, 3.27144e-05, 0.000980207, -0.0164474, -0.0349643, -0.0813264, 0, 0, 0, 0, 0, 0, 0, 0, 0, 0, 0, 0, 0, 0, 0, 0, 0, 0, 0, 0, 0, 0, 0, 0, 0, 0, 0, 0, 0, 0, 0, 0, 0, 0, 0, 0, 0, 0, 0, 0, 0, 0, 0, 0, 0, 0, 0, 0, 0, 0, 0, 0, 0, 0, 0, 0, 0, 0, 0, 0, 0, 0, 0, 0, 0, 0, 0, 0, 0, 0, 0, 
[2024-06-13 11:56:33.302588] [0x0000007f820829a0] [LogDataTag] [0x00000af8] [56] 1718294193138008, 0.164143, 0, 0, 0, 0, 0, 0, 0, 0, 0, 0, 0, 0, 1.8445e+13, 0.0987639, -0.130815, -0.298389, 0.998981, -0.0089262, -0.017132, -0.0407881, -0.000992887, 0.00135571, 0.00450748, -1.35973e-07, 3.27144e-05, 0.000980207, -0.0164474, -0.0349643, -0.0813264, 0, 0, 0, 0, 0, 0, 0, 0, 0, 0, 0, 0, 0, 0, 0, 0, 0, 0, 0, 0, 0, 0, 0, 0, 0, 0, 0, 0, 0, 0, 0, 0, 0, 0, 0, 0, 0, 0, 0, 0, 0, 0, 0, 0, 0, 0, 0, 0, 0, 0, 0, 0, 0, 0, 0, 0, 0, 0, 0, 0, 0, 0, 0, 0, 0, 0, 0, 0, 0, 0, 0, 
[2024-06-13 11:56:33.312604] [0x0000007f887dd010] [LogDataTag] [0x00000af8] [60] 1718294193138008, 0.174136, 0, 0, 0, 0, 0, 0, 0, 0, 0, 0, 0, 0, 1.8445e+13, 0.0987722, -0.130842, -0.298603, 0.998981, -0.00893259, -0.0171308, -0.0407933, -0.000992464, 0.00127558, 0.00454797, -0.000126548, -0.000570628, -0.000298838, -0.0164601, -0.0349626, -0.0813367, 0, 0, 0, 0, 0, 0, 0, 0, 0, 0, 0, 0, 0, 0, 0, 0, 0, 0, 0, 0, 0, 0, 0, 0, 0, 0, 0, 0, 0, 0, 0, 0, 0, 0, 0, 0, 0, 0, 0, 0, 0, 0, 0, 0, 0, 0, 0, 0, 0, 0, 0, 0, 0, 0, 0, 0, 0, 0, 0, 0, 0, 0, 0, 0, 0, 0, 0, 0, 0, 0, 0, 
[2024-06-13 11:56:33.322556] [0x0000007f820829a0] [LogDataTag] [0x00000af8] [65] 1718294193138008, 0.184128, 0, 0, 0, 0, 0, 0, 0, 0, 0, 0, 0, 0, 1.8445e+13, 0.0987752, -0.130853, -0.298855, 0.998981, -0.0089314, -0.0171327, -0.0407933, -0.000901686, 0.00127779, 0.00442075, 0.000667732, -0.000174325, -0.000790508, -0.0164576, -0.0349662, -0.0813367, 0, 0, 0, 0, 0, 0, 0, 0, 0, 0, 0, 0, 0, 0, 0, 0, 0, 0, 0, 0, 0, 0, 0, 0, 0, 0, 0, 0, 0, 0, 0, 0, 0, 0, 0, 0, 0, 0, 0, 0, 0, 0, 0, 0, 0, 0, 0, 0, 0, 0, 0, 0, 0, 0, 0, 0, 0, 0, 0, 0, 0, 0, 0, 0, 0, 0, 0, 0, 0, 0, 0, 
[2024-06-13 11:56:33.332574] [0x0000007f818819a0] [LogDataTag] [0x00000af8] [69] 1718294193138008, 0.194128, 0, 0, 0, 0, 0, 0, 0, 0, 0, 0, 0, 0, 1.8445e+13, 0.0987777, -0.130862, -0.299081, 0.998981, -0.0089305, -0.0171356, -0.040794, -0.00094439, 0.00123202, 0.00439433, -0.00041935, -0.000656848, -6.72078e-05, -0.0164555, -0.0349719, -0.081338, 0, 0, 0, 0, 0, 0, 0, 0, 0, 0, 0, 0, 0, 0, 0, 0, 0, 0, 0, 0, 0, 0, 0, 0, 0, 0, 0, 0, 0, 0, 0, 0, 0, 0, 0, 0, 0, 0, 0, 0, 0, 0, 0, 0, 0, 0, 0, 0, 0, 0, 0, 0, 0, 0, 0, 0, 0, 0, 0, 0, 0, 0, 0, 0, 0, 0, 0, 0, 0, 0, 0, 
[2024-06-13 11:56:33.342605] [0x0000007f810809a0] [LogDataTag] [0x00000af8] [74] 1718294193138008, 0.204133, 0, 0, 0, 0, 0, 0, 0, 0, 0, 0, 0, 0, 1.8445e+13, 0.0987792, -0.13087, -0.299283, 0.998981, -0.00893196, -0.0171381, -0.0407939, -0.000940474, 0.00121019, 0.00439137, 0.000300463, -0.000614669, 6.59485e-05, -0.0164583, -0.0349772, -0.0813379, 0, 0, 0, 0, 0, 0, 0, 0, 0, 0, 0, 0, 0, 0, 0, 0, 0, 0, 0, 0, 0, 0, 0, 0, 0, 0, 0, 0, 0, 0, 0, 0, 0, 0, 0, 0, 0, 0, 0, 0, 0, 0, 0, 0, 0, 0, 0, 0, 0, 0, 0, 0, 0, 0, 0, 0, 0, 0, 0, 0, 0, 0, 0, 0, 0, 0, 0, 0, 0, 0, 0, 
[2024-06-13 11:56:33.352645] [0x0000007f810809a0] [LogDataTag] [0x00000af8] [78] 1718294193138008, 0.214132, 0, 0, 0, 0, 0, 0, 0, 0, 0, 0, 0, 0, 1.8445e+13, 0.0987792, -0.13087, -0.299283, 0.998981, -0.00893196, -0.0171381, -0.0407939, -0.000940474, 0.00121019, 0.00439137, 0.000300463, -0.000614669, 6.59485e-05, -0.0164583, -0.0349772, -0.0813379, 0, 0, 0, 0, 0, 0, 0, 0, 0, 0, 0, 0, 0, 0, 0, 0, 0, 0, 0, 0, 0, 0, 0, 0, 0, 0, 0, 0, 0, 0, 0, 0, 0, 0, 0, 0, 0, 0, 0, 0, 0, 0, 0, 0, 0, 0, 0, 0, 0, 0, 0, 0, 0, 0, 0, 0, 0, 0, 0, 0, 0, 0, 0, 0, 0, 0, 0, 0, 0, 0, 0, 
[2024-06-13 11:56:33.362806] [0x0000007f820829a0] [LogDataTag] [0x00000af8] [83] 1718294193138008, 0.224379, 0, 0, 0, 0, 0, 0, 0, 0, 0, 0, 0, 0, 1.8445e+13, 0.0987815, -0.130882, -0.299625, 0.998981, -0.0089373, -0.0171403, -0.040791, -0.000831636, 0.00120831, 0.00420801, -0.000213662, 0.00015373, -0.000356791, -0.0164689, -0.0349819, -0.0813318, 0, 0, 0, 0, 0, 0, 0, 0, 0, 0, 0, 0, 0, 0, 0, 0, 0, 0, 0, 0, 0, 0, 0, 0, 0, 0, 0, 0, 0, 0, 0, 0, 0, 0, 0, 0, 0, 0, 0, 0, 0, 0, 0, 0, 0, 0, 0, 0, 0, 0, 0, 0, 0, 0, 0, 0, 0, 0, 0, 0, 0, 0, 0, 0, 0, 0, 0, 0, 0, 0, 0, 
[2024-06-13 11:56:33.372619] [0x0000007f810809a0] [LogDataTag] [0x00000af8] [87] 1718294193138008, 0.234135, 0, 0, 0, 0, 0, 0, 0, 0, 0, 0, 0, 0, 1.8445e+13, 0.0987819, -0.130886, -0.299758, 0.998981, -0.00893929, -0.0171411, -0.040794, -0.000831967, 0.00116108, 0.00414736, -0.000517214, -0.000937469, -0.00108428, -0.0164727, -0.0349838, -0.0813378, 0, 0, 0, 0, 0, 0, 0, 0, 0, 0, 0, 0, 0, 0, 0, 0, 0, 0, 0, 0, 0, 0, 0, 0, 0, 0, 0, 0, 0, 0, 0, 0, 0, 0, 0, 0, 0, 0, 0, 0, 0, 0, 0, 0, 0, 0, 0, 0, 0, 0, 0, 0, 0, 0, 0, 0, 0, 0, 0, 0, 0, 0, 0, 0, 0, 0, 0, 0, 0, 0, 0, 
[2024-06-13 11:56:33.382604] [0x0000007f810809a0] [LogDataTag] [0x00000af8] [92] 1718294193138008, 0.244138, 0, 0, 0, 0, 0, 0, 0, 0, 0, 0, 0, 0, 1.8445e+13, 0.0987819, -0.130886, -0.299758, 0.998981, -0.00893929, -0.0171411, -0.040794, -0.000831967, 0.00116108, 0.00414736, -0.000517214, -0.000937469, -0.00108428, -0.0164727, -0.0349838, -0.0813378, 0, 0, 0, 0, 0, 0, 0, 0, 0, 0, 0, 0, 0, 0, 0, 0, 0, 0, 0, 0, 0, 0, 0, 0, 0, 0, 0, 0, 0, 0, 0, 0, 0, 0, 0, 0, 0, 0, 0, 0, 0, 0, 0, 0, 0, 0, 0, 0, 0, 0, 0, 0, 0, 0, 0, 0, 0, 0, 0, 0, 0, 0, 0, 0, 0, 0, 0, 0, 0, 0, 0, 
[2024-06-13 11:56:33.392629] [0x0000007f818819a0] [LogDataTag] [0x00000af8] [96] 1718294193138008, 0.254145, 0, 0, 0, 0, 0, 0, 0, 0, 0, 0, 0, 0, 1.8445e+13, 0.0987816, -0.130893, -0.299979, 0.998981, -0.00894515, -0.0171437, -0.0407938, -0.000810631, 0.00116158, 0.00420309, -0.00110001, -0.000822581, 2.09833e-05, -0.0164842, -0.0349895, -0.0813372, 0, 0, 0, 0, 0, 0, 0, 0, 0, 0, 0, 0, 0, 0, 0, 0, 0, 0, 0, 0, 0, 0, 0, 0, 0, 0, 0, 0, 0, 0, 0, 0, 0, 0, 0, 0, 0, 0, 0, 0, 0, 0, 0, 0, 0, 0, 0, 0, 0, 0, 0, 0, 0, 0, 0, 0, 0, 0, 0, 0, 0, 0, 0, 0, 0, 0, 0, 0, 0, 0, 0, 
[2024-06-13 11:56:33.402597] [0x0000007f818819a0] [LogDataTag] [0x00000af8] [101] 1718294193138008, 0.264116, 0, 0, 0, 0, 0, 0, 0, 0, 0, 0, 0, 0, 1.8445e+13, 0.0987808, -0.130894, -0.300068, 0.99898, -0.00894597, -0.0171434, -0.0407947, -0.000780068, 0.00114447, 0.00421307, -0.000262772, 0.000274301, -0.000399611, -0.0164858, -0.0349888, -0.0813389, 0, 0, 0, 0, 0, 0, 0, 0, 0, 0, 0, 0, 0, 0, 0, 0, 0, 0, 0, 0, 0, 0, 0, 0, 0, 0, 0, 0, 0, 0, 0, 0, 0, 0, 0, 0, 0, 0, 0, 0, 0, 0, 0, 0, 0, 0, 0, 0, 0, 0, 0, 0, 0, 0, 0, 0, 0, 0, 0, 0, 0, 0, 0, 0, 0, 0, 0, 0, 0, 0, 0, 
[2024-06-13 11:56:33.412638] [0x0000007f818819a0] [LogDataTag] [0x00000af8] [105] 1718294193138008, 0.274157, 0, 0, 0, 0, 0, 0, 0, 0, 0, 0, 0, 0, 1.8445e+13, 0.0987808, -0.130894, -0.300068, 0.99898, -0.00894597, -0.0171434, -0.0407947, -0.000780068, 0.00114447, 0.00421307, -0.000262772, 0.000274301, -0.000399611, -0.0164858, -0.0349888, -0.0813389, 0, 0, 0, 0, 0, 0, 0, 0, 0, 0, 0, 0, 0, 0, 0, 0, 0, 0, 0, 0, 0, 0, 0, 0, 0, 0, 0, 0, 0, 0, 0, 0, 0, 0, 0, 0, 0, 0, 0, 0, 0, 0, 0, 0, 0, 0, 0, 0, 0, 0, 0, 0, 0, 0, 0, 0, 0, 0, 0, 0, 0, 0, 0, 0, 0, 0, 0, 0, 0, 0, 0, 
[2024-06-13 11:56:33.422627] [0x0000007f810809a0] [LogDataTag] [0x00000af8] [110] 1718294193138008, 0.284131, 0, 0, 0, 0, 0, 0, 0, 0, 0, 0, 0, 0, 1.8445e+13, 0.102725, -0.131766, -0.308675, 0.99898, -0.00894837, -0.0171431, -0.0407988, -0.000765599, 0.00116826, 0.00418766, -0.00093705, 0.000516836, -0.000735969, -0.0164905, -0.0349886, -0.081347, 0, 0, 0, 0, 0, 0, 0, 0, 0, 0, 0, 0, 0, 0, 0, 0, 0, 0, 0, 0, 0, 0, 0, 0, 0, 0, 0, 0, 0, 0, 0, 0, 0, 0, 0, 0, 0, 0, 0, 0, 0, 0, 0, 0, 0, 0, 0, 0, 0, 0, 0, 0, 0, 0, 0, 0, 0, 0, 0, 0, 0, 0, 0, 0, 0, 0, 0, 0, 0, 0, 0, 
[2024-06-13 11:56:33.432610] [0x0000007f810809a0] [LogDataTag] [0x00000af8] [114] 1718294193138008, 0.294146, 0, 0, 0, 0, 0, 0, 0, 0, 0, 0, 0, 0, 1.8445e+13, 0.102724, -0.131766, -0.308742, 0.99898, -0.00894981, -0.0171461, -0.0408004, -0.000718801, 0.00117725, 0.00417561, -3.07993e-05, -0.000879582, -0.000324086, -0.0164931, -0.0349947, -0.0813501, 0, 0, 0, 0, 0, 0, 0, 0, 0, 0, 0, 0, 0, 0, 0, 0, 0, 0, 0, 0, 0, 0, 0, 0, 0, 0, 0, 0, 0, 0, 0, 0, 0, 0, 0, 0, 0, 0, 0, 0, 0, 0, 0, 0, 0, 0, 0, 0, 0, 0, 0, 0, 0, 0, 0, 0, 0, 0, 0, 0, 0, 0, 0, 0, 0, 0, 0, 0, 0, 0, 0, 
[2024-06-13 11:56:33.442466] [0x0000007f887dd010] [LogDataTag] [0x00000af8] [118] 1718294193138008, 0.303995, 0, 0, 0, 0, 0, 0, 0, 0, 0, 0, 0, 0, 1.8445e+13, 0.102724, -0.131765, -0.308855, 0.99898, -0.00894854, -0.017149, -0.0408003, -0.000761695, 0.00115644, 0.00413323, 0.00034011, -0.000815338, -0.000386354, -0.0164903, -0.0350005, -0.0813499, 0, 0, 0, 0, 0, 0, 0, 0, 0, 0, 0, 0, 0, 0, 0, 0, 0, 0, 0, 0, 0, 0, 0, 0, 0, 0, 0, 0, 0, 0, 0, 0, 0, 0, 0, 0, 0, 0, 0, 0, 0, 0, 0, 0, 0, 0, 0, 0, 0, 0, 0, 0, 0, 0, 0, 0, 0, 0, 0, 0, 0, 0, 0, 0, 0, 0, 0, 0, 0, 0, 0, 
[2024-06-13 11:56:33.452584] [0x0000007f887dd010] [LogDataTag] [0x00000af8] [123] 1718294193138008, 0.314122, 0, 0, 0, 0, 0, 0, 0, 0, 0, 0, 0, 0, 1.8445e+13, 0.102724, -0.131765, -0.308855, 0.99898, -0.00894854, -0.017149, -0.0408003, -0.000761695, 0.00115644, 0.00413323, 0.00034011, -0.000815338, -0.000386354, -0.0164903, -0.0350005, -0.0813499, 0, 0, 0, 0, 0, 0, 0, 0, 0, 0, 0, 0, 0, 0, 0, 0, 0, 0, 0, 0, 0, 0, 0, 0, 0, 0, 0, 0, 0, 0, 0, 0, 0, 0, 0, 0, 0, 0, 0, 0, 0, 0, 0, 0, 0, 0, 0, 0, 0, 0, 0, 0, 0, 0, 0, 0, 0, 0, 0, 0, 0, 0, 0, 0, 0, 0, 0, 0, 0, 0, 0, 
[2024-06-13 11:56:33.462581] [0x0000007f810809a0] [LogDataTag] [0x00000af8] [127] 1718294193138008, 0.324116, 0, 0, 0, 0, 0, 0, 0, 0, 0, 0, 0, 0, 1.8445e+13, 0.102724, -0.131765, -0.308903, 0.99898, -0.0089487, -0.017151, -0.0407996, -0.000737304, 0.00110413, 0.0041308, 1.42232e-05, -0.000327173, -0.00105865, -0.0164905, -0.0350043, -0.0813486, 0, 0, 0, 0, 0, 0, 0, 0, 0, 0, 0, 0, 0, 0, 0, 0, 0, 0, 0, 0, 0, 0, 0, 0, 0, 0, 0, 0, 0, 0, 0, 0, 0, 0, 0, 0, 0, 0, 0, 0, 0, 0, 0, 0, 0, 0, 0, 0, 0, 0, 0, 0, 0, 0, 0, 0, 0, 0, 0, 0, 0, 0, 0, 0, 0, 0, 0, 0, 0, 0, 0, 
[2024-06-13 11:56:33.472590] [0x0000007f887dd010] [LogDataTag] [0x00000af8] [132] 1718294193138008, 0.334118, 0, 0, 0, 0, 0, 0, 0, 0, 0, 0, 0, 0, 1.8445e+13, 0.102723, -0.131765, -0.308981, 0.99898, -0.0089548, -0.0171494, -0.0408009, -0.000675572, 0.001187, 0.0040854, -0.000885413, 0.000806737, 0.000697748, -0.0165028, -0.0350017, -0.0813509, 0, 0, 0, 0, 0, 0, 0, 0, 0, 0, 0, 0, 0, 0, 0, 0, 0, 0, 0, 0, 0, 0, 0, 0, 0, 0, 0, 0, 0, 0, 0, 0, 0, 0, 0, 0, 0, 0, 0, 0, 0, 0, 0, 0, 0, 0, 0, 0, 0, 0, 0, 0, 0, 0, 0, 0, 0, 0, 0, 0, 0, 0, 0, 0, 0, 0, 0, 0, 0, 0, 0, 
[2024-06-13 11:56:33.482546] [0x0000007f887dd010] [LogDataTag] [0x00000af8] [137] 1718294193138008, 0.344135, 0, 0, 0, 0, 0, 0, 0, 0, 0, 0, 0, 0, 1.8445e+13, 0.102723, -0.131765, -0.308981, 0.99898, -0.0089548, -0.0171494, -0.0408009, -0.000675572, 0.001187, 0.0040854, -0.000885413, 0.000806737, 0.000697748, -0.0165028, -0.0350017, -0.0813509, 0, 0, 0, 0, 0, 0, 0, 0, 0, 0, 0, 0, 0, 0, 0, 0, 0, 0, 0, 0, 0, 0, 0, 0, 0, 0, 0, 0, 0, 0, 0, 0, 0, 0, 0, 0, 0, 0, 0, 0, 0, 0, 0, 0, 0, 0, 0, 0, 0, 0, 0, 0, 0, 0, 0, 0, 0, 0, 0, 0, 0, 0, 0, 0, 0, 0, 0, 0, 0, 0, 0, 
[2024-06-13 11:56:33.492516] [0x0000007f820829a0] [LogDataTag] [0x00000af8] [141] 1718294193138008, 0.354069, 0, 0, 0, 0, 0, 0, 0, 0, 0, 0, 0, 0, 1.8445e+13, 0.102722, -0.131762, -0.309041, 0.99898, -0.00895669, -0.0171509, -0.0408035, -0.000743599, 0.00125129, 0.00404598, -0.000442649, -0.00052086, 3.24909e-05, -0.0165063, -0.0350048, -0.081356, 0, 0, 0, 0, 0, 0, 0, 0, 0, 0, 0, 0, 0, 0, 0, 0, 0, 0, 0, 0, 0, 0, 0, 0, 0, 0, 0, 0, 0, 0, 0, 0, 0, 0, 0, 0, 0, 0, 0, 0, 0, 0, 0, 0, 0, 0, 0, 0, 0, 0, 0, 0, 0, 0, 0, 0, 0, 0, 0, 0, 0, 0, 0, 0, 0, 0, 0, 0, 0, 0, 0, 
[2024-06-13 11:56:33.502629] [0x0000007f820829a0] [LogDataTag] [0x00000af8] [146] 1718294193138008, 0.364139, 0, 0, 0, 0, 0, 0, 0, 0, 0, 0, 0, 0, 1.8445e+13, 0.102722, -0.131762, -0.309041, 0.99898, -0.00895669, -0.0171509, -0.0408035, -0.000743599, 0.00125129, 0.00404598, -0.000442649, -0.00052086, 3.24909e-05, -0.0165063, -0.0350048, -0.081356, 0, 0, 0, 0, 0, 0, 0, 0, 0, 0, 0, 0, 0, 0, 0, 0, 0, 0, 0, 0, 0, 0, 0, 0, 0, 0, 0, 0, 0, 0, 0, 0, 0, 0, 0, 0, 0, 0, 0, 0, 0, 0, 0, 0, 0, 0, 0, 0, 0, 0, 0, 0, 0, 0, 0, 0, 0, 0, 0, 0, 0, 0, 0, 0, 0, 0, 0, 0, 0, 0, 0, 
[2024-06-13 11:56:33.512588] [0x0000007f818819a0] [LogDataTag] [0x00000af8] [150] 1718294193138008, 0.374123, 0, 0, 0, 0, 0, 0, 0, 0, 0, 0, 0, 0, 1.8445e+13, 0.102721, -0.131759, -0.309066, 0.99898, -0.0089589, -0.0171496, -0.0407989, -0.000717073, 0.00132276, 0.00397222, -0.000579748, 0.00133633, 0.000436677, -0.016511, -0.0350024, -0.0813468, 0, 0, 0, 0, 0, 0, 0, 0, 0, 0, 0, 0, 0, 0, 0, 0, 0, 0, 0, 0, 0, 0, 0, 0, 0, 0, 0, 0, 0, 0, 0, 0, 0, 0, 0, 0, 0, 0, 0, 0, 0, 0, 0, 0, 0, 0, 0, 0, 0, 0, 0, 0, 0, 0, 0, 0, 0, 0, 0, 0, 0, 0, 0, 0, 0, 0, 0, 0, 0, 0, 0, 
[2024-06-13 11:56:33.522589] [0x0000007f887dd010] [LogDataTag] [0x00000af8] [155] 1718294193138008, 0.384153, 0, 0, 0, 0, 0, 0, 0, 0, 0, 0, 0, 0, 1.8445e+13, 0.10272, -0.131756, -0.309087, 0.99898, -0.00895708, -0.0171497, -0.0407993, -0.000629175, 0.00121437, 0.0039302, 0.000659496, 1.62285e-05, -0.000157284, -0.0165074, -0.0350025, -0.0813476, 0, 0, 0, 0, 0, 0, 0, 0, 0, 0, 0, 0, 0, 0, 0, 0, 0, 0, 0, 0, 0, 0, 0, 0, 0, 0, 0, 0, 0, 0, 0, 0, 0, 0, 0, 0, 0, 0, 0, 0, 0, 0, 0, 0, 0, 0, 0, 0, 0, 0, 0, 0, 0, 0, 0, 0, 0, 0, 0, 0, 0, 0, 0, 0, 0, 0, 0, 0, 0, 0, 0, 
[2024-06-13 11:56:33.532605] [0x0000007f810809a0] [LogDataTag] [0x00000af8] [159] 1718294193138008, 0.394118, 0, 0, 0, 0, 0, 0, 0, 0, 0, 0, 0, 0, 1.8445e+13, 0.10272, -0.131754, -0.309106, 0.99898, -0.00895758, -0.0171516, -0.0408017, -0.000618841, 0.00119005, 0.00387682, -0.000111733, -0.000483315, -0.000861004, -0.0165081, -0.0350064, -0.0813524, 0, 0, 0, 0, 0, 0, 0, 0, 0, 0, 0, 0, 0, 0, 0, 0, 0, 0, 0, 0, 0, 0, 0, 0, 0, 0, 0, 0, 0, 0, 0, 0, 0, 0, 0, 0, 0, 0, 0, 0, 0, 0, 0, 0, 0, 0, 0, 0, 0, 0, 0, 0, 0, 0, 0, 0, 0, 0, 0, 0, 0, 0, 0, 0, 0, 0, 0, 0, 0, 0, 0, 
[2024-06-13 11:56:33.542617] [0x0000007f820829a0] [LogDataTag] [0x00000af8] [164] 1718294193138008, 0.40414, 0, 0, 0, 0, 0, 0, 0, 0, 0, 0, 0, 0, 1.8445e+13, 0.10272, -0.131752, -0.309126, 0.99898, -0.00895723, -0.0171492, -0.0408004, -0.000607574, 0.00112642, 0.00377393, 0.000629479, 0.000888945, 0.00021307, -0.0165077, -0.0350014, -0.0813498, 0, 0, 0, 0, 0, 0, 0, 0, 0, 0, 0, 0, 0, 0, 0, 0, 0, 0, 0, 0, 0, 0, 0, 0, 0, 0, 0, 0, 0, 0, 0, 0, 0, 0, 0, 0, 0, 0, 0, 0, 0, 0, 0, 0, 0, 0, 0, 0, 0, 0, 0, 0, 0, 0, 0, 0, 0, 0, 0, 0, 0, 0, 0, 0, 0, 0, 0, 0, 0, 0, 0, 
[2024-06-13 11:56:33.552571] [0x0000007f818819a0] [LogDataTag] [0x00000af8] [169] 1718294193138008, 0.414129, 0, 0, 0, 0, 0, 0, 0, 0, 0, 0, 0, 0, 1.8445e+13, 0.102721, -0.131751, -0.309146, 0.99898, -0.0089587, -0.017153, -0.0408019, -0.000570094, 0.00101652, 0.00370226, -0.00054177, -0.000893183, -2.95566e-07, -0.0165102, -0.0350092, -0.0813526, 0, 0, 0, 0, 0, 0, 0, 0, 0, 0, 0, 0, 0, 0, 0, 0, 0, 0, 0, 0, 0, 0, 0, 0, 0, 0, 0, 0, 0, 0, 0, 0, 0, 0, 0, 0, 0, 0, 0, 0, 0, 0, 0, 0, 0, 0, 0, 0, 0, 0, 0, 0, 0, 0, 0, 0, 0, 0, 0, 0, 0, 0, 0, 0, 0, 0, 0, 0, 0, 0, 0, 
[2024-06-13 11:56:33.562603] [0x0000007f887dd010] [LogDataTag] [0x00000af8] [173] 1718294193138008, 0.424152, 0, 0, 0, 0, 0, 0, 0, 0, 0, 0, 0, 0, 1.8445e+13, 0.102721, -0.131749, -0.309162, 0.99898, -0.00896271, -0.0171525, -0.0408037, -0.000587354, 0.000986655, 0.00362018, -0.00068503, 0.000442826, -0.000560446, -0.0165182, -0.0350086, -0.0813562, 0, 0, 0, 0, 0, 0, 0, 0, 0, 0, 0, 0, 0, 0, 0, 0, 0, 0, 0, 0, 0, 0, 0, 0, 0, 0, 0, 0, 0, 0, 0, 0, 0, 0, 0, 0, 0, 0, 0, 0, 0, 0, 0, 0, 0, 0, 0, 0, 0, 0, 0, 0, 0, 0, 0, 0, 0, 0, 0, 0, 0, 0, 0, 0, 0, 0, 0, 0, 0, 0, 0, 
[2024-06-13 11:56:33.572614] [0x0000007f810809a0] [LogDataTag] [0x00000af8] [178] 1718294193138008, 0.434123, 0, 0, 0, 0, 0, 0, 0, 0, 0, 0, 0, 0, 1.8445e+13, 0.102721, -0.131749, -0.30918, 0.99898, -0.00896123, -0.0171517, -0.0408051, -0.000544093, 0.000973815, 0.00353756, 0.000643356, 0.00087021, 9.82453e-05, -0.0165153, -0.0350069, -0.0813591, 0, 0, 0, 0, 0, 0, 0, 0, 0, 0, 0, 0, 0, 0, 0, 0, 0, 0, 0, 0, 0, 0, 0, 0, 0, 0, 0, 0, 0, 0, 0, 0, 0, 0, 0, 0, 0, 0, 0, 0, 0, 0, 0, 0, 0, 0, 0, 0, 0, 0, 0, 0, 0, 0, 0, 0, 0, 0, 0, 0, 0, 0, 0, 0, 0, 0, 0, 0, 0, 0, 0, 
[2024-06-13 11:56:33.582617] [0x0000007f820829a0] [LogDataTag] [0x00000af8] [183] 1718294193138008, 0.444149, 0, 0, 0, 0, 0, 0, 0, 0, 0, 0, 0, 0, 1.8445e+13, 0.102722, -0.131747, -0.309195, 0.99898, -0.00896136, -0.017151, -0.0408084, -0.000572997, 0.000959526, 0.00343411, 0.000443611, 0.000853932, -0.000565985, -0.0165155, -0.0350055, -0.0813656, 0, 0, 0, 0, 0, 0, 0, 0, 0, 0, 0, 0, 0, 0, 0, 0, 0, 0, 0, 0, 0, 0, 0, 0, 0, 0, 0, 0, 0, 0, 0, 0, 0, 0, 0, 0, 0, 0, 0, 0, 0, 0, 0, 0, 0, 0, 0, 0, 0, 0, 0, 0, 0, 0, 0, 0, 0, 0, 0, 0, 0, 0, 0, 0, 0, 0, 0, 0, 0, 0, 0, 
[2024-06-13 11:56:33.592659] [0x0000007f820829a0] [LogDataTag] [0x00000af8] [187] 1718294193138008, 0.454151, 0, 0, 0, 0, 0, 0, 0, 0, 0, 0, 0, 0, 1.8445e+13, 0.102722, -0.131746, -0.309212, 0.99898, -0.00896284, -0.0171527, -0.0408096, -0.000590739, 0.000969638, 0.00324827, -0.000171924, 0.000216444, -0.000577575, -0.0165183, -0.0350091, -0.081368, 0, 0, 0, 0, 0, 0, 0, 0, 0, 0, 0, 0, 0, 0, 0, 0, 0, 0, 0, 0, 0, 0, 0, 0, 0, 0, 0, 0, 0, 0, 0, 0, 0, 0, 0, 0, 0, 0, 0, 0, 0, 0, 0, 0, 0, 0, 0, 0, 0, 0, 0, 0, 0, 0, 0, 0, 0, 0, 0, 0, 0, 0, 0, 0, 0, 0, 0, 0, 0, 0, 0, 
[2024-06-13 11:56:33.602624] [0x0000007f887dd010] [LogDataTag] [0x00000af8] [192] 1718294193138008, 0.464149, 0, 0, 0, 0, 0, 0, 0, 0, 0, 0, 0, 0, 1.8445e+13, 0.102722, -0.131745, -0.309228, 0.998979, -0.008965, -0.0171568, -0.0408117, -0.000589309, 0.000925811, 0.00313832, -0.000434245, -0.0012963, -0.000888268, -0.0165222, -0.0350174, -0.0813721, 0, 0, 0, 0, 0, 0, 0, 0, 0, 0, 0, 0, 0, 0, 0, 0, 0, 0, 0, 0, 0, 0, 0, 0, 0, 0, 0, 0, 0, 0, 0, 0, 0, 0, 0, 0, 0, 0, 0, 0, 0, 0, 0, 0, 0, 0, 0, 0, 0, 0, 0, 0, 0, 0, 0, 0, 0, 0, 0, 0, 0, 0, 0, 0, 0, 0, 0, 0, 0, 0, 0, 
[2024-06-13 11:56:33.612541] [0x0000007f887dd010] [LogDataTag] [0x00000af8] [197] 1718294193138008, 0.474131, 0, 0, 0, 0, 0, 0, 0, 0, 0, 0, 0, 0, 1.8445e+13, 0.102723, -0.131745, -0.309246, 0.998979, -0.00896685, -0.0171584, -0.0408143, -0.000595757, 0.000832692, 0.00302773, -0.000508617, -0.000903986, -0.000269079, -0.0165257, -0.0350208, -0.0813772, 0, 0, 0, 0, 0, 0, 0, 0, 0, 0, 0, 0, 0, 0, 0, 0, 0, 0, 0, 0, 0, 0, 0, 0, 0, 0, 0, 0, 0, 0, 0, 0, 0, 0, 0, 0, 0, 0, 0, 0, 0, 0, 0, 0, 0, 0, 0, 0, 0, 0, 0, 0, 0, 0, 0, 0, 0, 0, 0, 0, 0, 0, 0, 0, 0, 0, 0, 0, 0, 0, 0, 
[2024-06-13 11:56:33.622637] [0x0000007f818819a0] [LogDataTag] [0x00000af8] [201] 1718294193138008, 0.484138, 0, 0, 0, 0, 0, 0, 0, 0, 0, 0, 0, 0, 1.8445e+13, 0.102724, -0.131746, -0.309266, 0.998979, -0.00896604, -0.0171617, -0.040813, -0.000581071, 0.000834123, 0.00288998, 0.000207203, -0.000481174, 0.000912247, -0.0165238, -0.0350273, -0.0813746, 0, 0, 0, 0, 0, 0, 0, 0, 0, 0, 0, 0, 0, 0, 0, 0, 0, 0, 0, 0, 0, 0, 0, 0, 0, 0, 0, 0, 0, 0, 0, 0, 0, 0, 0, 0, 0, 0, 0, 0, 0, 0, 0, 0, 0, 0, 0, 0, 0, 0, 0, 0, 0, 0, 0, 0, 0, 0, 0, 0, 0, 0, 0, 0, 0, 0, 0, 0, 0, 0, 0, 
[2024-06-13 11:56:33.632604] [0x0000007f820829a0] [LogDataTag] [0x00000af8] [206] 1718294193138008, 0.49414, 0, 0, 0, 0, 0, 0, 0, 0, 0, 0, 0, 0, 1.8445e+13, 0.102724, -0.131746, -0.309285, 0.998979, -0.00896548, -0.0171627, -0.0408149, -0.000603095, 0.000769059, 0.00279658, 9.67128e-05, -0.000497684, 8.50184e-05, -0.0165225, -0.0350293, -0.0813784, 0, 0, 0, 0, 0, 0, 0, 0, 0, 0, 0, 0, 0, 0, 0, 0, 0, 0, 0, 0, 0, 0, 0, 0, 0, 0, 0, 0, 0, 0, 0, 0, 0, 0, 0, 0, 0, 0, 0, 0, 0, 0, 0, 0, 0, 0, 0, 0, 0, 0, 0, 0, 0, 0, 0, 0, 0, 0, 0, 0, 0, 0, 0, 0, 0, 0, 0, 0, 0, 0, 0, 
[2024-06-13 11:56:33.642625] [0x0000007f820829a0] [LogDataTag] [0x00000af8] [210] 1718294193138008, 0.504139, 0, 0, 0, 0, 0, 0, 0, 0, 0, 0, 0, 0, 1.8445e+13, 0.102724, -0.131746, -0.309285, 0.998979, -0.00896548, -0.0171627, -0.0408149, -0.000603095, 0.000769059, 0.00279658, 9.67128e-05, -0.000497684, 8.50184e-05, -0.0165225, -0.0350293, -0.0813784, 0, 0, 0, 0, 0, 0, 0, 0, 0, 0, 0, 0, 0, 0, 0, 0, 0, 0, 0, 0, 0, 0, 0, 0, 0, 0, 0, 0, 0, 0, 0, 0, 0, 0, 0, 0, 0, 0, 0, 0, 0, 0, 0, 0, 0, 0, 0, 0, 0, 0, 0, 0, 0, 0, 0, 0, 0, 0, 0, 0, 0, 0, 0, 0, 0, 0, 0, 0, 0, 0, 0, 
[2024-06-13 11:56:33.652604] [0x0000007f818819a0] [LogDataTag] [0x00000af8] [215] 1718294193138008, 0.514122, 0, 0, 0, 0, 0, 0, 0, 0, 0, 0, 0, 0, 1.8445e+13, 0.102725, -0.131748, -0.309306, 0.998979, -0.00896853, -0.017165, -0.0408158, -0.00057299, 0.000715914, 0.00268467, 0.000115293, -0.000515003, -0.000346859, -0.0165284, -0.0350342, -0.0813801, 0, 0, 0, 0, 0, 0, 0, 0, 0, 0, 0, 0, 0, 0, 0, 0, 0, 0, 0, 0, 0, 0, 0, 0, 0, 0, 0, 0, 0, 0, 0, 0, 0, 0, 0, 0, 0, 0, 0, 0, 0, 0, 0, 0, 0, 0, 0, 0, 0, 0, 0, 0, 0, 0, 0, 0, 0, 0, 0, 0, 0, 0, 0, 0, 0, 0, 0, 0, 0, 0, 0, 
[2024-06-13 11:56:33.662521] [0x0000007f810809a0] [LogDataTag] [0x00000af8] [219] 1718294193138008, 0.524062, 0, 0, 0, 0, 0, 0, 0, 0, 0, 0, 0, 0, 1.8445e+13, 0.102727, -0.131755, -0.309352, 0.998979, -0.00896903, -0.0171683, -0.0408159, -0.000591724, 0.000648147, 0.00246701, -0.00108235, -0.000206651, -0.000187571, -0.0165292, -0.0350408, -0.0813801, 0, 0, 0, 0, 0, 0, 0, 0, 0, 0, 0, 0, 0, 0, 0, 0, 0, 0, 0, 0, 0, 0, 0, 0, 0, 0, 0, 0, 0, 0, 0, 0, 0, 0, 0, 0, 0, 0, 0, 0, 0, 0, 0, 0, 0, 0, 0, 0, 0, 0, 0, 0, 0, 0, 0, 0, 0, 0, 0, 0, 0, 0, 0, 0, 0, 0, 0, 0, 0, 0, 0, 
[2024-06-13 11:56:33.672615] [0x0000007f887dd010] [LogDataTag] [0x00000af8] [224] 1718294193138008, 0.534134, 0, 0, 0, 0, 0, 0, 0, 0, 0, 0, 0, 0, 1.8445e+13, 0.102728, -0.131759, -0.309377, 0.998979, -0.00897099, -0.0171702, -0.0408181, -0.000605051, 0.000679897, 0.00239145, -0.000479164, -8.14538e-05, 8.41421e-05, -0.0165329, -0.0350448, -0.0813845, 0, 0, 0, 0, 0, 0, 0, 0, 0, 0, 0, 0, 0, 0, 0, 0, 0, 0, 0, 0, 0, 0, 0, 0, 0, 0, 0, 0, 0, 0, 0, 0, 0, 0, 0, 0, 0, 0, 0, 0, 0, 0, 0, 0, 0, 0, 0, 0, 0, 0, 0, 0, 0, 0, 0, 0, 0, 0, 0, 0, 0, 0, 0, 0, 0, 0, 0, 0, 0, 0, 0, 
[2024-06-13 11:56:33.682618] [0x0000007f820829a0] [LogDataTag] [0x00000af8] [228] 1718294193138008, 0.544115, 0, 0, 0, 0, 0, 0, 0, 0, 0, 0, 0, 0, 1.8445e+13, 0.102729, -0.131762, -0.3094, 0.998979, -0.00897185, -0.0171716, -0.0408174, -0.00057257, 0.000610891, 0.00234792, 0.000184888, -0.000593634, 0.000469672, -0.0165345, -0.0350477, -0.081383, 0, 0, 0, 0, 0, 0, 0, 0, 0, 0, 0, 0, 0, 0, 0, 0, 0, 0, 0, 0, 0, 0, 0, 0, 0, 0, 0, 0, 0, 0, 0, 0, 0, 0, 0, 0, 0, 0, 0, 0, 0, 0, 0, 0, 0, 0, 0, 0, 0, 0, 0, 0, 0, 0, 0, 0, 0, 0, 0, 0, 0, 0, 0, 0, 0, 0, 0, 0, 0, 0, 0, 
[2024-06-13 11:56:33.692604] [0x0000007f818819a0] [LogDataTag] [0x00000af8] [232] 1718294193138008, 0.55413, 0, 0, 0, 0, 0, 0, 0, 0, 0, 0, 0, 0, 1.8445e+13, 0.102731, -0.131767, -0.309425, 0.998979, -0.00897252, -0.0171714, -0.0408174, -0.000575478, 0.000601504, 0.00221925, -0.000397689, -5.13587e-05, 9.12288e-05, -0.0165358, -0.0350474, -0.0813831, 0, 0, 0, 0, 0, 0, 0, 0, 0, 0, 0, 0, 0, 0, 0, 0, 0, 0, 0, 0, 0, 0, 0, 0, 0, 0, 0, 0, 0, 0, 0, 0, 0, 0, 0, 0, 0, 0, 0, 0, 0, 0, 0, 0, 0, 0, 0, 0, 0, 0, 0, 0, 0, 0, 0, 0, 0, 0, 0, 0, 0, 0, 0, 0, 0, 0, 0, 0, 0, 0, 0, 
[2024-06-13 11:56:33.702587] [0x0000007f810809a0] [LogDataTag] [0x00000af8] [237] 1718294193138008, 0.564126, 0, 0, 0, 0, 0, 0, 0, 0, 0, 0, 0, 0, 1.8445e+13, 0.102732, -0.131771, -0.309449, 0.998979, -0.00897123, -0.017166, -0.0408188, -0.000602412, 0.000640956, 0.00216196, 0.000268765, 0.00121147, 0.000975992, -0.0165336, -0.0350366, -0.0813859, 0, 0, 0, 0, 0, 0, 0, 0, 0, 0, 0, 0, 0, 0, 0, 0, 0, 0, 0, 0, 0, 0, 0, 0, 0, 0, 0, 0, 0, 0, 0, 0, 0, 0, 0, 0, 0, 0, 0, 0, 0, 0, 0, 0, 0, 0, 0, 0, 0, 0, 0, 0, 0, 0, 0, 0, 0, 0, 0, 0, 0, 0, 0, 0, 0, 0, 0, 0, 0, 0, 0, 
[2024-06-13 11:56:33.712602] [0x0000007f887dd010] [LogDataTag] [0x00000af8] [242] 1718294193138008, 0.574132, 0, 0, 0, 0, 0, 0, 0, 0, 0, 0, 0, 0, 1.8445e+13, 0.102734, -0.131776, -0.309474, 0.998979, -0.00897042, -0.0171678, -0.0408172, -0.00063208, 0.000646892, 0.00206618, 0.000146566, -0.000363975, -0.000221656, -0.0165319, -0.03504, -0.0813827, 0, 0, 0, 0, 0, 0, 0, 0, 0, 0, 0, 0, 0, 0, 0, 0, 0, 0, 0, 0, 0, 0, 0, 0, 0, 0, 0, 0, 0, 0, 0, 0, 0, 0, 0, 0, 0, 0, 0, 0, 0, 0, 0, 0, 0, 0, 0, 0, 0, 0, 0, 0, 0, 0, 0, 0, 0, 0, 0, 0, 0, 0, 0, 0, 0, 0, 0, 0, 0, 0, 0, 
[2024-06-13 11:56:33.722556] [0x0000007f820829a0] [LogDataTag] [0x00000af8] [247] 1718294193138008, 0.584129, 0, 0, 0, 0, 0, 0, 0, 0, 0, 0, 0, 0, 1.8445e+13, 0.102735, -0.13178, -0.309499, 0.998979, -0.00897261, -0.0171692, -0.0408159, -0.000622834, 0.000647417, 0.00198997, -3.72563e-06, -5.30062e-05, 0.000937626, -0.0165362, -0.035043, -0.08138, 0, 0, 0, 0, 0, 0, 0, 0, 0, 0, 0, 0, 0, 0, 0, 0, 0, 0, 0, 0, 0, 0, 0, 0, 0, 0, 0, 0, 0, 0, 0, 0, 0, 0, 0, 0, 0, 0, 0, 0, 0, 0, 0, 0, 0, 0, 0, 0, 0, 0, 0, 0, 0, 0, 0, 0, 0, 0, 0, 0, 0, 0, 0, 0, 0, 0, 0, 0, 0, 0, 0, 
[2024-06-13 11:56:33.732651] [0x0000007f818819a0] [LogDataTag] [0x00000af8] [251] 1718294193138008, 0.594127, 0, 0, 0, 0, 0, 0, 0, 0, 0, 0, 0, 0, 1.8445e+13, 0.102737, -0.131784, -0.309525, 0.998979, -0.00897295, -0.0171698, -0.0408182, -0.000583391, 0.000639071, 0.00197177, 0.000125869, -0.000184209, 0.0001527, -0.0165368, -0.0350443, -0.0813847, 0, 0, 0, 0, 0, 0, 0, 0, 0, 0, 0, 0, 0, 0, 0, 0, 0, 0, 0, 0, 0, 0, 0, 0, 0, 0, 0, 0, 0, 0, 0, 0, 0, 0, 0, 0, 0, 0, 0, 0, 0, 0, 0, 0, 0, 0, 0, 0, 0, 0, 0, 0, 0, 0, 0, 0, 0, 0, 0, 0, 0, 0, 0, 0, 0, 0, 0, 0, 0, 0, 0, 
[2024-06-13 11:56:33.742589] [0x0000007f810809a0] [LogDataTag] [0x00000af8] [256] 1718294193138008, 0.604156, 0, 0, 0, 0, 0, 0, 0, 0, 0, 0, 0, 0, 1.8445e+13, 0.102739, -0.13179, -0.309552, 0.998979, -0.00897506, -0.0171696, -0.0408222, -0.00060596, 0.000599912, 0.0018167, 0.000211631, 4.39847e-05, -0.000101635, -0.0165409, -0.0350441, -0.0813926, 0, 0, 0, 0, 0, 0, 0, 0, 0, 0, 0, 0, 0, 0, 0, 0, 0, 0, 0, 0, 0, 0, 0, 0, 0, 0, 0, 0, 0, 0, 0, 0, 0, 0, 0, 0, 0, 0, 0, 0, 0, 0, 0, 0, 0, 0, 0, 0, 0, 0, 0, 0, 0, 0, 0, 0, 0, 0, 0, 0, 0, 0, 0, 0, 0, 0, 0, 0, 0, 0, 0, 
[2024-06-13 11:56:33.752597] [0x0000007f887dd010] [LogDataTag] [0x00000af8] [260] 1718294193138008, 0.614115, 0, 0, 0, 0, 0, 0, 0, 0, 0, 0, 0, 0, 1.8445e+13, 0.10274, -0.131795, -0.309578, 0.998979, -0.00897335, -0.017167, -0.0408257, -0.00062192, 0.000589054, 0.00176254, 0.000222053, 0.000778684, -0.000557321, -0.0165376, -0.0350388, -0.0813996, 0, 0, 0, 0, 0, 0, 0, 0, 0, 0, 0, 0, 0, 0, 0, 0, 0, 0, 0, 0, 0, 0, 0, 0, 0, 0, 0, 0, 0, 0, 0, 0, 0, 0, 0, 0, 0, 0, 0, 0, 0, 0, 0, 0, 0, 0, 0, 0, 0, 0, 0, 0, 0, 0, 0, 0, 0, 0, 0, 0, 0, 0, 0, 0, 0, 0, 0, 0, 0, 0, 0, 
[2024-06-13 11:56:33.762562] [0x0000007f820829a0] [LogDataTag] [0x00000af8] [265] 1718294193138008, 0.624115, 0, 0, 0, 0, 0, 0, 0, 0, 0, 0, 0, 0, 1.8445e+13, 0.102742, -0.131801, -0.309605, 0.998978, -0.00896922, -0.0171664, -0.040831, -0.000669298, 0.000529256, 0.00171969, 0.000558878, 0.000470389, -0.000783922, -0.0165292, -0.0350374, -0.0814104, 0, 0, 0, 0, 0, 0, 0, 0, 0, 0, 0, 0, 0, 0, 0, 0, 0, 0, 0, 0, 0, 0, 0, 0, 0, 0, 0, 0, 0, 0, 0, 0, 0, 0, 0, 0, 0, 0, 0, 0, 0, 0, 0, 0, 0, 0, 0, 0, 0, 0, 0, 0, 0, 0, 0, 0, 0, 0, 0, 0, 0, 0, 0, 0, 0, 0, 0, 0, 0, 0, 0, 
[2024-06-13 11:56:33.772579] [0x0000007f820829a0] [LogDataTag] [0x00000af8] [269] 1718294193138008, 0.634119, 0, 0, 0, 0, 0, 0, 0, 0, 0, 0, 0, 0, 1.8445e+13, 0.102743, -0.131808, -0.309631, 0.998978, -0.00897011, -0.0171625, -0.0408358, -0.000629537, 0.00044884, 0.0016313, -0.000374541, 0.000435897, -0.00037629, -0.0165311, -0.0350297, -0.08142, 0, 0, 0, 0, 0, 0, 0, 0, 0, 0, 0, 0, 0, 0, 0, 0, 0, 0, 0, 0, 0, 0, 0, 0, 0, 0, 0, 0, 0, 0, 0, 0, 0, 0, 0, 0, 0, 0, 0, 0, 0, 0, 0, 0, 0, 0, 0, 0, 0, 0, 0, 0, 0, 0, 0, 0, 0, 0, 0, 0, 0, 0, 0, 0, 0, 0, 0, 0, 0, 0, 0, 
[2024-06-13 11:56:33.782812] [0x0000007f818819a0] [LogDataTag] [0x00000af8] [274] 1718294193138008, 0.644166, 0, 0, 0, 0, 0, 0, 0, 0, 0, 0, 0, 0, 1.8445e+13, 0.102744, -0.131816, -0.309658, 0.998978, -0.00896996, -0.0171622, -0.0408396, -0.000619405, 0.000350584, 0.00154639, 3.07664e-06, -0.0002239, -0.00124716, -0.0165307, -0.0350292, -0.0814277, 0, 0, 0, 0, 0, 0, 0, 0, 0, 0, 0, 0, 0, 0, 0, 0, 0, 0, 0, 0, 0, 0, 0, 0, 0, 0, 0, 0, 0, 0, 0, 0, 0, 0, 0, 0, 0, 0, 0, 0, 0, 0, 0, 0, 0, 0, 0, 0, 0, 0, 0, 0, 0, 0, 0, 0, 0, 0, 0, 0, 0, 0, 0, 0, 0, 0, 0, 0, 0, 0, 0, 
[2024-06-13 11:56:33.792537] [0x0000007f887dd010] [LogDataTag] [0x00000af8] [279] 1718294193138008, 0.654117, 0, 0, 0, 0, 0, 0, 0, 0, 0, 0, 0, 0, 1.8445e+13, 0.102746, -0.131824, -0.309683, 0.998978, -0.00897117, -0.017163, -0.0408424, -0.000622427, 0.000315221, 0.00154744, 0.00044184, 7.84403e-05, 5.16151e-05, -0.0165329, -0.0350309, -0.0814332, 0, 0, 0, 0, 0, 0, 0, 0, 0, 0, 0, 0, 0, 0, 0, 0, 0, 0, 0, 0, 0, 0, 0, 0, 0, 0, 0, 0, 0, 0, 0, 0, 0, 0, 0, 0, 0, 0, 0, 0, 0, 0, 0, 0, 0, 0, 0, 0, 0, 0, 0, 0, 0, 0, 0, 0, 0, 0, 0, 0, 0, 0, 0, 0, 0, 0, 0, 0, 0, 0, 0, 
[2024-06-13 11:56:33.802572] [0x0000007f810809a0] [LogDataTag] [0x00000af8] [283] 1718294193138008, 0.664122, 0, 0, 0, 0, 0, 0, 0, 0, 0, 0, 0, 0, 1.8445e+13, 0.102747, -0.131833, -0.309709, 0.998978, -0.00897264, -0.0171645, -0.0408433, -0.000601267, 0.00027927, 0.0014548, -0.000261023, -1.65305e-05, -9.05109e-06, -0.0165357, -0.0350341, -0.081435, 0, 0, 0, 0, 0, 0, 0, 0, 0, 0, 0, 0, 0, 0, 0, 0, 0, 0, 0, 0, 0, 0, 0, 0, 0, 0, 0, 0, 0, 0, 0, 0, 0, 0, 0, 0, 0, 0, 0, 0, 0, 0, 0, 0, 0, 0, 0, 0, 0, 0, 0, 0, 0, 0, 0, 0, 0, 0, 0, 0, 0, 0, 0, 0, 0, 0, 0, 0, 0, 0, 0, 
[2024-06-13 11:56:33.812626] [0x0000007f820829a0] [LogDataTag] [0x00000af8] [288] 1718294193138008, 0.674193, 0, 0, 0, 0, 0, 0, 0, 0, 0, 0, 0, 0, 1.8445e+13, 0.102749, -0.131842, -0.309734, 0.998978, -0.00897188, -0.017167, -0.0408453, -0.000538234, 0.000199008, 0.00145078, -5.8711e-06, -0.000228276, 0.000271482, -0.0165339, -0.0350391, -0.0814389, 0, 0, 0, 0, 0, 0, 0, 0, 0, 0, 0, 0, 0, 0, 0, 0, 0, 0, 0, 0, 0, 0, 0, 0, 0, 0, 0, 0, 0, 0, 0, 0, 0, 0, 0, 0, 0, 0, 0, 0, 0, 0, 0, 0, 0, 0, 0, 0, 0, 0, 0, 0, 0, 0, 0, 0, 0, 0, 0, 0, 0, 0, 0, 0, 0, 0, 0, 0, 0, 0, 0, 
[2024-06-13 11:56:33.822552] [0x0000007f818819a0] [LogDataTag] [0x00000af8] [292] 1718294193138008, 0.684118, 0, 0, 0, 0, 0, 0, 0, 0, 0, 0, 0, 0, 1.8445e+13, 0.102751, -0.131852, -0.309757, 0.998978, -0.00896995, -0.017168, -0.0408503, -0.000494423, 0.000210156, 0.00141996, 0.000777536, -0.000162031, -0.000627454, -0.0165298, -0.0350409, -0.081449, 0, 0, 0, 0, 0, 0, 0, 0, 0, 0, 0, 0, 0, 0, 0, 0, 0, 0, 0, 0, 0, 0, 0, 0, 0, 0, 0, 0, 0, 0, 0, 0, 0, 0, 0, 0, 0, 0, 0, 0, 0, 0, 0, 0, 0, 0, 0, 0, 0, 0, 0, 0, 0, 0, 0, 0, 0, 0, 0, 0, 0, 0, 0, 0, 0, 0, 0, 0, 0, 0, 0, 
[2024-06-13 11:56:33.832874] [0x0000007f887dd010] [LogDataTag] [0x00000af8] [297] 1718294193138008, 0.694459, 0, 0, 0, 0, 0, 0, 0, 0, 0, 0, 0, 0, 1.8445e+13, 0.102754, -0.131861, -0.309781, 0.998977, -0.00896915, -0.0171673, -0.0408524, -0.000467123, 0.0001946, 0.00135235, 0.000551539, -0.000294404, -0.000614194, -0.0165282, -0.0350395, -0.0814533, 0, 0, 0, 0, 0, 0, 0, 0, 0, 0, 0, 0, 0, 0, 0, 0, 0, 0, 0, 0, 0, 0, 0, 0, 0, 0, 0, 0, 0, 0, 0, 0, 0, 0, 0, 0, 0, 0, 0, 0, 0, 0, 0, 0, 0, 0, 0, 0, 0, 0, 0, 0, 0, 0, 0, 0, 0, 0, 0, 0, 0, 0, 0, 0, 0, 0, 0, 0, 0, 0, 0, 
[2024-06-13 11:56:33.842597] [0x0000007f810809a0] [LogDataTag] [0x00000af8] [301] 1718294193138008, 0.704123, 0, 0, 0, 0, 0, 0, 0, 0, 0, 0, 0, 0, 1.8445e+13, 0.102757, -0.131871, -0.309804, 0.998977, -0.00897117, -0.0171649, -0.0408553, -0.000382218, 0.000160047, 0.00132435, 0.00020492, 0.000897685, -0.00073831, -0.0165323, -0.0350349, -0.0814591, 0, 0, 0, 0, 0, 0, 0, 0, 0, 0, 0, 0, 0, 0, 0, 0, 0, 0, 0, 0, 0, 0, 0, 0, 0, 0, 0, 0, 0, 0, 0, 0, 0, 0, 0, 0, 0, 0, 0, 0, 0, 0, 0, 0, 0, 0, 0, 0, 0, 0, 0, 0, 0, 0, 0, 0, 0, 0, 0, 0, 0, 0, 0, 0, 0, 0, 0, 0, 0, 0, 0, 
[2024-06-13 11:56:33.852789] [0x0000007f820829a0] [LogDataTag] [0x00000af8] [306] 1718294193138008, 0.714224, 0, 0, 0, 0, 0, 0, 0, 0, 0, 0, 0, 0, 1.8445e+13, 0.102761, -0.131881, -0.309827, 0.998977, -0.00896826, -0.0171668, -0.0408611, -0.000295746, 0.000105531, 0.0013222, 0.00114708, -1.44463e-05, -0.000914267, -0.0165262, -0.0350386, -0.0814707, 0, 0, 0, 0, 0, 0, 0, 0, 0, 0, 0, 0, 0, 0, 0, 0, 0, 0, 0, 0, 0, 0, 0, 0, 0, 0, 0, 0, 0, 0, 0, 0, 0, 0, 0, 0, 0, 0, 0, 0, 0, 0, 0, 0, 0, 0, 0, 0, 0, 0, 0, 0, 0, 0, 0, 0, 0, 0, 0, 0, 0, 0, 0, 0, 0, 0, 0, 0, 0, 0, 0, 
[2024-06-13 11:56:33.862540] [0x0000007f818819a0] [LogDataTag] [0x00000af8] [311] 1718294193138008, 0.724086, 0, 0, 0, 0, 0, 0, 0, 0, 0, 0, 0, 0, 1.8445e+13, 0.102765, -0.131891, -0.309847, 0.998977, -0.00896919, -0.0171638, -0.0408607, -0.000299949, 0.000102493, 0.00132666, -0.000226542, 0.000315046, 0.000467443, -0.0165283, -0.0350326, -0.08147, 0, 0, 0, 0, 0, 0, 0, 0, 0, 0, 0, 0, 0, 0, 0, 0, 0, 0, 0, 0, 0, 0, 0, 0, 0, 0, 0, 0, 0, 0, 0, 0, 0, 0, 0, 0, 0, 0, 0, 0, 0, 0, 0, 0, 0, 0, 0, 0, 0, 0, 0, 0, 0, 0, 0, 0, 0, 0, 0, 0, 0, 0, 0, 0, 0, 0, 0, 0, 0, 0, 0, 
[2024-06-13 11:56:33.872616] [0x0000007f887dd010] [LogDataTag] [0x00000af8] [315] 1718294193138008, 0.734123, 0, 0, 0, 0, 0, 0, 0, 0, 0, 0, 0, 0, 1.8445e+13, 0.102769, -0.131901, -0.309868, 0.998977, -0.00897149, -0.0171667, -0.0408653, -0.000219104, 5.06155e-06, 0.00124868, -0.0005776, -0.000128416, -0.000302926, -0.0165325, -0.0350387, -0.0814791, 0, 0, 0, 0, 0, 0, 0, 0, 0, 0, 0, 0, 0, 0, 0, 0, 0, 0, 0, 0, 0, 0, 0, 0, 0, 0, 0, 0, 0, 0, 0, 0, 0, 0, 0, 0, 0, 0, 0, 0, 0, 0, 0, 0, 0, 0, 0, 0, 0, 0, 0, 0, 0, 0, 0, 0, 0, 0, 0, 0, 0, 0, 0, 0, 0, 0, 0, 0, 0, 0, 0, 
[2024-06-13 11:56:33.882583] [0x0000007f810809a0] [LogDataTag] [0x00000af8] [319] 1718294193138008, 0.744124, 0, 0, 0, 0, 0, 0, 0, 0, 0, 0, 0, 0, 1.8445e+13, 0.102774, -0.131911, -0.309888, 0.998977, -0.00897195, -0.0171665, -0.0408701, -0.000169373, -4.73845e-05, 0.00123499, -0.000546939, 0.00061537, -0.000441139, -0.0165333, -0.0350384, -0.0814887, 0, 0, 0, 0, 0, 0, 0, 0, 0, 0, 0, 0, 0, 0, 0, 0, 0, 0, 0, 0, 0, 0, 0, 0, 0, 0, 0, 0, 0, 0, 0, 0, 0, 0, 0, 0, 0, 0, 0, 0, 0, 0, 0, 0, 0, 0, 0, 0, 0, 0, 0, 0, 0, 0, 0, 0, 0, 0, 0, 0, 0, 0, 0, 0, 0, 0, 0, 0, 0, 0, 0, 
[2024-06-13 11:56:33.892650] [0x0000007f820829a0] [LogDataTag] [0x00000af8] [324] 1718294193138008, 0.754109, 0, 0, 0, 0, 0, 0, 0, 0, 0, 0, 0, 0, 1.8445e+13, 0.10278, -0.131922, -0.309906, 0.998977, -0.00897091, -0.0171653, -0.040875, -0.0001414, -5.87255e-05, 0.0011804, 0.000272721, 4.37447e-05, -0.00112236, -0.0165311, -0.035036, -0.0814984, 0, 0, 0, 0, 0, 0, 0, 0, 0, 0, 0, 0, 0, 0, 0, 0, 0, 0, 0, 0, 0, 0, 0, 0, 0, 0, 0, 0, 0, 0, 0, 0, 0, 0, 0, 0, 0, 0, 0, 0, 0, 0, 0, 0, 0, 0, 0, 0, 0, 0, 0, 0, 0, 0, 0, 0, 0, 0, 0, 0, 0, 0, 0, 0, 0, 0, 0, 0, 0, 0, 0, 
[2024-06-13 11:56:33.902661] [0x0000007f818819a0] [LogDataTag] [0x00000af8] [328] 1718294193138008, 0.764115, 0, 0, 0, 0, 0, 0, 0, 0, 0, 0, 0, 0, 1.8445e+13, 0.102785, -0.131932, -0.309924, 0.998977, -0.008975, -0.0171654, -0.0408739, -0.000121279, -4.37186e-05, 0.00114701, -0.000654183, -0.000378417, 0.000822976, -0.0165393, -0.0350366, -0.0814962, 0, 0, 0, 0, 0, 0, 0, 0, 0, 0, 0, 0, 0, 0, 0, 0, 0, 0, 0, 0, 0, 0, 0, 0, 0, 0, 0, 0, 0, 0, 0, 0, 0, 0, 0, 0, 0, 0, 0, 0, 0, 0, 0, 0, 0, 0, 0, 0, 0, 0, 0, 0, 0, 0, 0, 0, 0, 0, 0, 0, 0, 0, 0, 0, 0, 0, 0, 0, 0, 0, 0, 
[2024-06-13 11:56:33.912775] [0x0000007f887dd010] [LogDataTag] [0x00000af8] [333] 1718294193138008, 0.774347, 0, 0, 0, 0, 0, 0, 0, 0, 0, 0, 0, 0, 1.8445e+13, 0.10279, -0.131942, -0.309941, 0.998976, -0.0089794, -0.0171674, -0.0408764, -0.000106326, -4.72343e-05, 0.00112195, -0.000904586, -0.000126955, 0.000899843, -0.0165478, -0.035041, -0.0815009, 0, 0, 0, 0, 0, 0, 0, 0, 0, 0, 0, 0, 0, 0, 0, 0, 0, 0, 0, 0, 0, 0, 0, 0, 0, 0, 0, 0, 0, 0, 0, 0, 0, 0, 0, 0, 0, 0, 0, 0, 0, 0, 0, 0, 0, 0, 0, 0, 0, 0, 0, 0, 0, 0, 0, 0, 0, 0, 0, 0, 0, 0, 0, 0, 0, 0, 0, 0, 0, 0, 0, 
[2024-06-13 11:56:33.922592] [0x0000007f887dd010] [LogDataTag] [0x00000af8] [337] 1718294193138008, 0.784127, 0, 0, 0, 0, 0, 0, 0, 0, 0, 0, 0, 0, 1.8445e+13, 0.102795, -0.131952, -0.309957, 0.998976, -0.00898262, -0.0171716, -0.0408775, -0.000104317, -9.86872e-05, 0.00102386, -0.000409662, -0.000566777, -0.000371776, -0.0165539, -0.0350496, -0.0815029, 0, 0, 0, 0, 0, 0, 0, 0, 0, 0, 0, 0, 0, 0, 0, 0, 0, 0, 0, 0, 0, 0, 0, 0, 0, 0, 0, 0, 0, 0, 0, 0, 0, 0, 0, 0, 0, 0, 0, 0, 0, 0, 0, 0, 0, 0, 0, 0, 0, 0, 0, 0, 0, 0, 0, 0, 0, 0, 0, 0, 0, 0, 0, 0, 0, 0, 0, 0, 0, 0, 0, 
[2024-06-13 11:56:33.932671] [0x0000007f820829a0] [LogDataTag] [0x00000af8] [341] 1718294193138008, 0.794219, 0, 0, 0, 0, 0, 0, 0, 0, 0, 0, 0, 0, 1.8445e+13, 0.1028, -0.131962, -0.309973, 0.998976, -0.00898386, -0.0171698, -0.0408805, -9.15846e-05, -0.000129566, 0.00103014, -4.37469e-05, 0.000658041, -0.00020244, -0.0165564, -0.0350461, -0.0815091, 0, 0, 0, 0, 0, 0, 0, 0, 0, 0, 0, 0, 0, 0, 0, 0, 0, 0, 0, 0, 0, 0, 0, 0, 0, 0, 0, 0, 0, 0, 0, 0, 0, 0, 0, 0, 0, 0, 0, 0, 0, 0, 0, 0, 0, 0, 0, 0, 0, 0, 0, 0, 0, 0, 0, 0, 0, 0, 0, 0, 0, 0, 0, 0, 0, 0, 0, 0, 0, 0, 0, 
[2024-06-13 11:56:33.942562] [0x0000007f810809a0] [LogDataTag] [0x00000af8] [346] 1718294193138008, 0.804104, 0, 0, 0, 0, 0, 0, 0, 0, 0, 0, 0, 0, 1.8445e+13, 0.102805, -0.131972, -0.309987, 0.998976, -0.00898397, -0.0171702, -0.040882, -0.000110459, -0.000133896, 0.000999363, 0.000533143, -0.00025594, 0.000639467, -0.0165566, -0.035047, -0.081512, 0, 0, 0, 0, 0, 0, 0, 0, 0, 0, 0, 0, 0, 0, 0, 0, 0, 0, 0, 0, 0, 0, 0, 0, 0, 0, 0, 0, 0, 0, 0, 0, 0, 0, 0, 0, 0, 0, 0, 0, 0, 0, 0, 0, 0, 0, 0, 0, 0, 0, 0, 0, 0, 0, 0, 0, 0, 0, 0, 0, 0, 0, 0, 0, 0, 0, 0, 0, 0, 0, 0, 
[2024-06-13 11:56:33.952637] [0x0000007f818819a0] [LogDataTag] [0x00000af8] [350] 1718294193138008, 0.814123, 0, 0, 0, 0, 0, 0, 0, 0, 0, 0, 0, 0, 1.8445e+13, 0.102811, -0.131981, -0.310001, 0.998976, -0.00898606, -0.0171712, -0.0408823, -3.46108e-06, -0.000162143, 0.00095676, 9.22339e-05, 6.02256e-05, 0.000719272, -0.0165606, -0.0350492, -0.0815126, 0, 0, 0, 0, 0, 0, 0, 0, 0, 0, 0, 0, 0, 0, 0, 0, 0, 0, 0, 0, 0, 0, 0, 0, 0, 0, 0, 0, 0, 0, 0, 0, 0, 0, 0, 0, 0, 0, 0, 0, 0, 0, 0, 0, 0, 0, 0, 0, 0, 0, 0, 0, 0, 0, 0, 0, 0, 0, 0, 0, 0, 0, 0, 0, 0, 0, 0, 0, 0, 0, 0, 
[2024-06-13 11:56:33.962632] [0x0000007f887dd010] [LogDataTag] [0x00000af8] [354] 1718294193138008, 0.824128, 0, 0, 0, 0, 0, 0, 0, 0, 0, 0, 0, 0, 1.8445e+13, 0.102816, -0.13199, -0.310015, 0.998976, -0.00898771, -0.0171734, -0.0408836, 5.29321e-06, -0.000160351, 0.000965403, -0.000470642, 0.00029807, 0.000372778, -0.0165637, -0.0350537, -0.081515, 0, 0, 0, 0, 0, 0, 0, 0, 0, 0, 0, 0, 0, 0, 0, 0, 0, 0, 0, 0, 0, 0, 0, 0, 0, 0, 0, 0, 0, 0, 0, 0, 0, 0, 0, 0, 0, 0, 0, 0, 0, 0, 0, 0, 0, 0, 0, 0, 0, 0, 0, 0, 0, 0, 0, 0, 0, 0, 0, 0, 0, 0, 0, 0, 0, 0, 0, 0, 0, 0, 0, 
[2024-06-13 11:56:33.972620] [0x0000007f820829a0] [LogDataTag] [0x00000af8] [359] 1718294193138008, 0.834124, 0, 0, 0, 0, 0, 0, 0, 0, 0, 0, 0, 0, 1.8445e+13, 0.102823, -0.131999, -0.310028, 0.998976, -0.00898664, -0.0171748, -0.0408871, 1.96482e-05, -0.000125868, 0.000908087, 0.000609713, 0.000169903, -0.000827794, -0.0165613, -0.0350564, -0.081522, 0, 0, 0, 0, 0, 0, 0, 0, 0, 0, 0, 0, 0, 0, 0, 0, 0, 0, 0, 0, 0, 0, 0, 0, 0, 0, 0, 0, 0, 0, 0, 0, 0, 0, 0, 0, 0, 0, 0, 0, 0, 0, 0, 0, 0, 0, 0, 0, 0, 0, 0, 0, 0, 0, 0, 0, 0, 0, 0, 0, 0, 0, 0, 0, 0, 0, 0, 0, 0, 0, 0, 
[2024-06-13 11:56:33.982644] [0x0000007f810809a0] [LogDataTag] [0x00000af8] [364] 1718294193138008, 0.84412, 0, 0, 0, 0, 0, 0, 0, 0, 0, 0, 0, 0, 1.8445e+13, 0.102829, -0.132007, -0.310039, 0.998975, -0.00898707, -0.0171781, -0.0408912, 4.66537e-05, -7.99614e-05, 0.000897592, -0.000266372, -0.00030401, -0.000449726, -0.0165618, -0.0350632, -0.0815302, 0, 0, 0, 0, 0, 0, 0, 0, 0, 0, 0, 0, 0, 0, 0, 0, 0, 0, 0, 0, 0, 0, 0, 0, 0, 0, 0, 0, 0, 0, 0, 0, 0, 0, 0, 0, 0, 0, 0, 0, 0, 0, 0, 0, 0, 0, 0, 0, 0, 0, 0, 0, 0, 0, 0, 0, 0, 0, 0, 0, 0, 0, 0, 0, 0, 0, 0, 0, 0, 0, 0, 
[2024-06-13 11:56:33.992472] [0x0000007f810809a0] [LogDataTag] [0x00000af8] [369] 1718294193138008, 0.854018, 0, 0, 0, 0, 0, 0, 0, 0, 0, 0, 0, 0, 1.8445e+13, 0.102835, -0.132015, -0.31005, 0.998975, -0.00898566, -0.017179, -0.0408949, 7.20937e-05, -8.0295e-05, 0.000829249, 0.000534257, -0.00052871, -0.000706946, -0.0165588, -0.0350649, -0.0815376, 0, 0, 0, 0, 0, 0, 0, 0, 0, 0, 0, 0, 0, 0, 0, 0, 0, 0, 0, 0, 0, 0, 0, 0, 0, 0, 0, 0, 0, 0, 0, 0, 0, 0, 0, 0, 0, 0, 0, 0, 0, 0, 0, 0, 0, 0, 0, 0, 0, 0, 0, 0, 0, 0, 0, 0, 0, 0, 0, 0, 0, 0, 0, 0, 0, 0, 0, 0, 0, 0, 0, 
[2024-06-13 11:56:34.002615] [0x0000007f820829a0] [LogDataTag] [0x00000af8] [373] 1718294193138008, 0.864119, 0, 0, 0, 0, 0, 0, 0, 0, 0, 0, 0, 0, 1.8445e+13, 0.102841, -0.132022, -0.310062, 0.998975, -0.00898842, -0.0171784, -0.0408966, 8.47873e-06, -9.44504e-05, 0.000839548, -0.0003022, 0.000258833, 0.0002958, -0.0165643, -0.0350639, -0.081541, 0, 0, 0, 0, 0, 0, 0, 0, 0, 0, 0, 0, 0, 0, 0, 0, 0, 0, 0, 0, 0, 0, 0, 0, 0, 0, 0, 0, 0, 0, 0, 0, 0, 0, 0, 0, 0, 0, 0, 0, 0, 0, 0, 0, 0, 0, 0, 0, 0, 0, 0, 0, 0, 0, 0, 0, 0, 0, 0, 0, 0, 0, 0, 0, 0, 0, 0, 0, 0, 0, 0, 
[2024-06-13 11:56:34.012586] [0x0000007f887dd010] [LogDataTag] [0x00000af8] [378] 1718294193138008, 0.87412, 0, 0, 0, 0, 0, 0, 0, 0, 0, 0, 0, 0, 1.8445e+13, 0.102846, -0.132029, -0.310071, 0.998975, -0.00899069, -0.0171802, -0.0408995, -2.51687e-06, -0.000135677, 0.000808819, -0.000362088, -0.000194268, 0.000314709, -0.0165686, -0.0350678, -0.0815466, 0, 0, 0, 0, 0, 0, 0, 0, 0, 0, 0, 0, 0, 0, 0, 0, 0, 0, 0, 0, 0, 0, 0, 0, 0, 0, 0, 0, 0, 0, 0, 0, 0, 0, 0, 0, 0, 0, 0, 0, 0, 0, 0, 0, 0, 0, 0, 0, 0, 0, 0, 0, 0, 0, 0, 0, 0, 0, 0, 0, 0, 0, 0, 0, 0, 0, 0, 0, 0, 0, 0, 
[2024-06-13 11:56:34.022653] [0x0000007f818819a0] [LogDataTag] [0x00000af8] [383] 1718294193138008, 0.884174, 0, 0, 0, 0, 0, 0, 0, 0, 0, 0, 0, 0, 1.8445e+13, 0.102852, -0.132036, -0.310081, 0.998975, -0.00899006, -0.0171805, -0.0409015, -1.98823e-06, -0.000141959, 0.000752834, -4.22772e-06, 0.000288724, 4.36393e-05, -0.0165672, -0.0350684, -0.0815507, 0, 0, 0, 0, 0, 0, 0, 0, 0, 0, 0, 0, 0, 0, 0, 0, 0, 0, 0, 0, 0, 0, 0, 0, 0, 0, 0, 0, 0, 0, 0, 0, 0, 0, 0, 0, 0, 0, 0, 0, 0, 0, 0, 0, 0, 0, 0, 0, 0, 0, 0, 0, 0, 0, 0, 0, 0, 0, 0, 0, 0, 0, 0, 0, 0, 0, 0, 0, 0, 0, 0, 
[2024-06-13 11:56:34.032627] [0x0000007f810809a0] [LogDataTag] [0x00000af8] [388] 1718294193138008, 0.894128, 0, 0, 0, 0, 0, 0, 0, 0, 0, 0, 0, 0, 1.8445e+13, 0.102857, -0.132043, -0.310091, 0.998975, -0.00899181, -0.0171812, -0.0409007, 4.80153e-05, -0.000202572, 0.000665324, -0.000807533, -0.00047137, 0.000467815, -0.0165707, -0.03507, -0.0815491, 0, 0, 0, 0, 0, 0, 0, 0, 0, 0, 0, 0, 0, 0, 0, 0, 0, 0, 0, 0, 0, 0, 0, 0, 0, 0, 0, 0, 0, 0, 0, 0, 0, 0, 0, 0, 0, 0, 0, 0, 0, 0, 0, 0, 0, 0, 0, 0, 0, 0, 0, 0, 0, 0, 0, 0, 0, 0, 0, 0, 0, 0, 0, 0, 0, 0, 0, 0, 0, 0, 0, 
[2024-06-13 11:56:34.042643] [0x0000007f818819a0] [LogDataTag] [0x00000af8] [392] 1718294193138008, 0.90416, 0, 0, 0, 0, 0, 0, 0, 0, 0, 0, 0, 0, 1.8445e+13, 0.102863, -0.132051, -0.3101, 0.998975, -0.00899285, -0.0171832, -0.0409064, 7.13226e-05, -0.000206386, 0.000593789, 0.000284957, -0.000469061, -0.000863797, -0.0165724, -0.035074, -0.0815604, 0, 0, 0, 0, 0, 0, 0, 0, 0, 0, 0, 0, 0, 0, 0, 0, 0, 0, 0, 0, 0, 0, 0, 0, 0, 0, 0, 0, 0, 0, 0, 0, 0, 0, 0, 0, 0, 0, 0, 0, 0, 0, 0, 0, 0, 0, 0, 0, 0, 0, 0, 0, 0, 0, 0, 0, 0, 0, 0, 0, 0, 0, 0, 0, 0, 0, 0, 0, 0, 0, 0, 
[2024-06-13 11:56:34.052585] [0x0000007f810809a0] [LogDataTag] [0x00000af8] [397] 1718294193138008, 0.914146, 0, 0, 0, 0, 0, 0, 0, 0, 0, 0, 0, 0, 1.8445e+13, 0.102868, -0.132057, -0.310109, 0.998975, -0.00899608, -0.0171847, -0.040903, 4.1346e-05, -0.000235539, 0.000585715, -0.000218029, -0.000103323, 0.00111748, -0.0165789, -0.0350773, -0.0815534, 0, 0, 0, 0, 0, 0, 0, 0, 0, 0, 0, 0, 0, 0, 0, 0, 0, 0, 0, 0, 0, 0, 0, 0, 0, 0, 0, 0, 0, 0, 0, 0, 0, 0, 0, 0, 0, 0, 0, 0, 0, 0, 0, 0, 0, 0, 0, 0, 0, 0, 0, 0, 0, 0, 0, 0, 0, 0, 0, 0, 0, 0, 0, 0, 0, 0, 0, 0, 0, 0, 0, 
[2024-06-13 11:56:34.062702] [0x0000007f810809a0] [LogDataTag] [0x00000af8] [401] 1718294193138008, 0.924133, 0, 0, 0, 0, 0, 0, 0, 0, 0, 0, 0, 0, 1.8445e+13, 0.102868, -0.132057, -0.310109, 0.998975, -0.00899608, -0.0171847, -0.040903, 4.1346e-05, -0.000235539, 0.000585715, -0.000218029, -0.000103323, 0.00111748, -0.0165789, -0.0350773, -0.0815534, 0, 0, 0, 0, 0, 0, 0, 0, 0, 0, 0, 0, 0, 0, 0, 0, 0, 0, 0, 0, 0, 0, 0, 0, 0, 0, 0, 0, 0, 0, 0, 0, 0, 0, 0, 0, 0, 0, 0, 0, 0, 0, 0, 0, 0, 0, 0, 0, 0, 0, 0, 0, 0, 0, 0, 0, 0, 0, 0, 0, 0, 0, 0, 0, 0, 0, 0, 0, 0, 0, 0, 
[2024-06-13 11:56:34.072643] [0x0000007f820829a0] [LogDataTag] [0x00000af8] [406] 1718294193138008, 0.934165, 0, 0, 0, 0, 0, 0, 0, 0, 0, 0, 0, 0, 1.8445e+13, 0.102878, -0.132069, -0.310127, 0.998974, -0.00899731, -0.0171878, -0.0409112, 4.53707e-05, -0.000163362, 0.000456793, -7.43238e-05, -0.000114333, 2.89189e-05, -0.0165808, -0.0350838, -0.0815697, 0, 0, 0, 0, 0, 0, 0, 0, 0, 0, 0, 0, 0, 0, 0, 0, 0, 0, 0, 0, 0, 0, 0, 0, 0, 0, 0, 0, 0, 0, 0, 0, 0, 0, 0, 0, 0, 0, 0, 0, 0, 0, 0, 0, 0, 0, 0, 0, 0, 0, 0, 0, 0, 0, 0, 0, 0, 0, 0, 0, 0, 0, 0, 0, 0, 0, 0, 0, 0, 0, 0, 
[2024-06-13 11:56:34.082614] [0x0000007f820829a0] [LogDataTag] [0x00000af8] [411] 1718294193138008, 0.944175, 0, 0, 0, 0, 0, 0, 0, 0, 0, 0, 0, 0, 1.8445e+13, 0.102878, -0.132069, -0.310127, 0.998974, -0.00899731, -0.0171878, -0.0409112, 4.53707e-05, -0.000163362, 0.000456793, -7.43238e-05, -0.000114333, 2.89189e-05, -0.0165808, -0.0350838, -0.0815697, 0, 0, 0, 0, 0, 0, 0, 0, 0, 0, 0, 0, 0, 0, 0, 0, 0, 0, 0, 0, 0, 0, 0, 0, 0, 0, 0, 0, 0, 0, 0, 0, 0, 0, 0, 0, 0, 0, 0, 0, 0, 0, 0, 0, 0, 0, 0, 0, 0, 0, 0, 0, 0, 0, 0, 0, 0, 0, 0, 0, 0, 0, 0, 0, 0, 0, 0, 0, 0, 0, 0, 
[2024-06-13 11:56:34.092609] [0x0000007f810809a0] [LogDataTag] [0x00000af8] [415] 1718294193138008, 0.95416, 0, 0, 0, 0, 0, 0, 0, 0, 0, 0, 0, 0, 1.8445e+13, 0.102889, -0.132081, -0.310144, 0.998973, -0.00899522, -0.0171839, -0.0409584, 0.000152228, -0.000815512, 0.000122848, 0.000181785, 0.00022257, -0.00821344, -0.0165753, -0.0350765, -0.0816644, 0, 0, 0, 0, 0, 0, 0, 0, 0, 0, 0, 0, 0, 0, 0, 0, 0, 0, 0, 0, 0, 0, 0, 0, 0, 0, 0, 0, 0, 0, 0, 0, 0, 0, 0, 0, 0, 0, 0, 0, 0, 0, 0, 0, 0, 0, 0, 0, 0, 0, 0, 0, 0, 0, 0, 0, 0, 0, 0, 0, 0, 0, 0, 0, 0, 0, 0, 0, 0, 0, 0, 
[2024-06-13 11:56:34.102657] [0x0000007f810809a0] [LogDataTag] [0x00000af8] [419] 1718294193138008, 0.964158, 0, 0, 0, 0, 0, 0, 0, 0, 0, 0, 0, 0, 1.8445e+13, 0.102889, -0.132081, -0.310144, 0.998973, -0.00899522, -0.0171839, -0.0409584, 0.000152228, -0.000815512, 0.000122848, 0.000181785, 0.00022257, -0.00821344, -0.0165753, -0.0350765, -0.0816644, 0, 0, 0, 0, 0, 0, 0, 0, 0, 0, 0, 0, 0, 0, 0, 0, 0, 0, 0, 0, 0, 0, 0, 0, 0, 0, 0, 0, 0, 0, 0, 0, 0, 0, 0, 0, 0, 0, 0, 0, 0, 0, 0, 0, 0, 0, 0, 0, 0, 0, 0, 0, 0, 0, 0, 0, 0, 0, 0, 0, 0, 0, 0, 0, 0, 0, 0, 0, 0, 0, 0, 
[2024-06-13 11:56:34.112629] [0x0000007f818819a0] [LogDataTag] [0x00000af8] [423] 1718294193138008, 0.974163, 0, 0, 0, 0, 0, 0, 0, 0, 0, 0, 0, 0, 1.8445e+13, 0.102895, -0.132084, -0.310153, 0.998973, -0.00898528, -0.0171843, -0.0409506, 4.658e-05, 0.000505063, 0.000478971, 0.00665689, -0.00100538, 0.0054837, -0.0165556, -0.0350763, -0.0816491, 0, 0, 0, 0, 0, 0, 0, 0, 0, 0, 0, 0, 0, 0, 0, 0, 0, 0, 0, 0, 0, 0, 0, 0, 0, 0, 0, 0, 0, 0, 0, 0, 0, 0, 0, 0, 0, 0, 0, 0, 0, 0, 0, 0, 0, 0, 0, 0, 0, 0, 0, 0, 0, 0, 0, 0, 0, 0, 0, 0, 0, 0, 0, 0, 0, 0, 0, 0, 0, 0, 0, 
[2024-06-13 11:56:34.122596] [0x0000007f810809a0] [LogDataTag] [0x00000af8] [428] 1718294193138008, 0.984137, 0, 0, 0, 0, 0, 0, 0, 0, 0, 0, 0, 0, 1.8445e+13, 0.102905, -0.132067, -0.310167, 0.998979, -0.00899031, -0.0171791, -0.0408056, 8.57733e-05, 0.000254269, 0.000325846, 0.00101656, 0.000873029, 0.00950595, -0.0165712, -0.035064, -0.0813586, 0, 0, 0, 0, 0, 0, 0, 0, 0, 0, 0, 0, 0, 0, 0, 0, 0, 0, 0, 0, 0, 0, 0, 0, 0, 0, 0, 0, 0, 0, 0, 0, 0, 0, 0, 0, 0, 0, 0, 0, 0, 0, 0, 0, 0, 0, 0, 0, 0, 0, 0, 0, 0, 0, 0, 0, 0, 0, 0, 0, 0, 0, 0, 0, 0, 0, 0, 0, 0, 0, 0, 
[2024-06-13 11:56:34.132654] [0x0000007f810809a0] [LogDataTag] [0x00000af8] [432] 1718294193138008, 0.994179, 0, 0, 0, 0, 0, 0, 0, 0, 0, 0, 0, 0, 1.8445e+13, 0.102905, -0.132067, -0.310167, 0.998979, -0.00899031, -0.0171791, -0.0408056, 8.57733e-05, 0.000254269, 0.000325846, 0.00101656, 0.000873029, 0.00950595, -0.0165712, -0.035064, -0.0813586, 0, 0, 0, 0, 0, 0, 0, 0, 0, 0, 0, 0, 0, 0, 0, 0, 0, 0, 0, 0, 0, 0, 0, 0, 0, 0, 0, 0, 0, 0, 0, 0, 0, 0, 0, 0, 0, 0, 0, 0, 0, 0, 0, 0, 0, 0, 0, 0, 0, 0, 0, 0, 0, 0, 0, 0, 0, 0, 0, 0, 0, 0, 0, 0, 0, 0, 0, 0, 0, 0, 0, 
[2024-06-13 11:56:34.142563] [0x0000007f887dd010] [LogDataTag] [0x00000af8] [437] 1718294193138008, 1.00414, 0, 0, 0, 0, 0, 0, 0, 0, 0, 0, 0, 0, 1.8445e+13, 0.102915, -0.132093, -0.310182, 0.998974, -0.00898851, -0.0171791, -0.0409338, 0.000249297, -0.00203633, 0.000307885, 0.00231424, -0.00155341, -0.0199184, -0.0165631, -0.0350661, -0.0816154, 0, 0, 0, 0, 0, 0, 0, 0, 0, 0, 0, 0, 0, 0, 0, 0, 0, 0, 0, 0, 0, 0, 0, 0, 0, 0, 0, 0, 0, 0, 0, 0, 0, 0, 0, 0, 0, 0, 0, 0, 0, 0, 0, 0, 0, 0, 0, 0, 0, 0, 0, 0, 0, 0, 0, 0, 0, 0, 0, 0, 0, 0, 0, 0, 0, 0, 0, 0, 0, 0, 0, 
[2024-06-13 11:56:34.152642] [0x0000007f887dd010] [LogDataTag] [0x00000af8] [441] 1718294193138008, 1.01415, 0, 0, 0, 0, 0, 0, 0, 0, 0, 0, 0, 0, 1.8445e+13, 0.102915, -0.132093, -0.310182, 0.998974, -0.00898851, -0.0171791, -0.0409338, 0.000249297, -0.00203633, 0.000307885, 0.00231424, -0.00155341, -0.0199184, -0.0165631, -0.0350661, -0.0816154, 0, 0, 0, 0, 0, 0, 0, 0, 0, 0, 0, 0, 0, 0, 0, 0, 0, 0, 0, 0, 0, 0, 0, 0, 0, 0, 0, 0, 0, 0, 0, 0, 0, 0, 0, 0, 0, 0, 0, 0, 0, 0, 0, 0, 0, 0, 0, 0, 0, 0, 0, 0, 0, 0, 0, 0, 0, 0, 0, 0, 0, 0, 0, 0, 0, 0, 0, 0, 0, 0, 0, 
[2024-06-13 11:56:34.162675] [0x0000007f818819a0] [LogDataTag] [0x00000af8] [446] 1718294193138008, 1.02413, 0, 0, 0, 0, 0, 0, 0, 0, 0, 0, 0, 0, 1.8445e+13, 0.102926, -0.13212, -0.310187, 0.998968, -0.00901108, -0.0172109, -0.04106, 0.000291577, -0.000591944, 0.000475241, -0.00131892, -0.00020878, -0.00503602, -0.0166012, -0.0351336, -0.081867, 0, 0, 0, 0, 0, 0, 0, 0, 0, 0, 0, 0, 0, 0, 0, 0, 0, 0, 0, 0, 0, 0, 0, 0, 0, 0, 0, 0, 0, 0, 0, 0, 0, 0, 0, 0, 0, 0, 0, 0, 0, 0, 0, 0, 0, 0, 0, 0, 0, 0, 0, 0, 0, 0, 0, 0, 0, 0, 0, 0, 0, 0, 0, 0, 0, 0, 0, 0, 0, 0, 0, 
[2024-06-13 11:56:34.172935] [0x0000007f818819a0] [LogDataTag] [0x00000af8] [451] 1718294193138008, 1.03451, 0, 0, 0, 0, 0, 0, 0, 0, 0, 0, 0, 0, 1.8445e+13, 0.102926, -0.13212, -0.310187, 0.998968, -0.00901108, -0.0172109, -0.04106, 0.000291577, -0.000591944, 0.000475241, -0.00131892, -0.00020878, -0.00503602, -0.0166012, -0.0351336, -0.081867, 0, 0, 0, 0, 0, 0, 0, 0, 0, 0, 0, 0, 0, 0, 0, 0, 0, 0, 0, 0, 0, 0, 0, 0, 0, 0, 0, 0, 0, 0, 0, 0, 0, 0, 0, 0, 0, 0, 0, 0, 0, 0, 0, 0, 0, 0, 0, 0, 0, 0, 0, 0, 0, 0, 0, 0, 0, 0, 0, 0, 0, 0, 0, 0, 0, 0, 0, 0, 0, 0, 0, 
[2024-06-13 11:56:34.182665] [0x0000007f810809a0] [LogDataTag] [0x00000af8] [455] 1718294193138008, 1.04419, 0, 0, 0, 0, 0, 0, 0, 0, 0, 0, 0, 0, 1.8445e+13, 0.102935, -0.132115, -0.310195, 0.998971, -0.0090052, -0.0171944, -0.0409825, 0.000247247, 0.00126459, 0.000643068, 0.00167783, -0.000366566, 0.0185057, -0.0165935, -0.0350988, -0.0817122, 0, 0, 0, 0, 0, 0, 0, 0, 0, 0, 0, 0, 0, 0, 0, 0, 0, 0, 0, 0, 0, 0, 0, 0, 0, 0, 0, 0, 0, 0, 0, 0, 0, 0, 0, 0, 0, 0, 0, 0, 0, 0, 0, 0, 0, 0, 0, 0, 0, 0, 0, 0, 0, 0, 0, 0, 0, 0, 0, 0, 0, 0, 0, 0, 0, 0, 0, 0, 0, 0, 0, 
[2024-06-13 11:56:34.192641] [0x0000007f810809a0] [LogDataTag] [0x00000af8] [460] 1718294193138008, 1.05416, 0, 0, 0, 0, 0, 0, 0, 0, 0, 0, 0, 0, 1.8445e+13, 0.102935, -0.132115, -0.310195, 0.998971, -0.0090052, -0.0171944, -0.0409825, 0.000247247, 0.00126459, 0.000643068, 0.00167783, -0.000366566, 0.0185057, -0.0165935, -0.0350988, -0.0817122, 0, 0, 0, 0, 0, 0, 0, 0, 0, 0, 0, 0, 0, 0, 0, 0, 0, 0, 0, 0, 0, 0, 0, 0, 0, 0, 0, 0, 0, 0, 0, 0, 0, 0, 0, 0, 0, 0, 0, 0, 0, 0, 0, 0, 0, 0, 0, 0, 0, 0, 0, 0, 0, 0, 0, 0, 0, 0, 0, 0, 0, 0, 0, 0, 0, 0, 0, 0, 0, 0, 0, 
[2024-06-13 11:56:34.202481] [0x0000007f820829a0] [LogDataTag] [0x00000af8] [465] 1718294193138008, 1.06404, 0, 0, 0, 0, 0, 0, 0, 0, 0, 0, 0, 0, 1.8445e+13, 0.102945, -0.1321, -0.310201, 0.998977, -0.00899849, -0.0171964, -0.0408367, 0.000220813, -0.000573825, 0.000425278, -0.000609772, -0.00310643, 0.00641033, -0.0165851, -0.0350997, -0.0814204, 0, 0, 0, 0, 0, 0, 0, 0, 0, 0, 0, 0, 0, 0, 0, 0, 0, 0, 0, 0, 0, 0, 0, 0, 0, 0, 0, 0, 0, 0, 0, 0, 0, 0, 0, 0, 0, 0, 0, 0, 0, 0, 0, 0, 0, 0, 0, 0, 0, 0, 0, 0, 0, 0, 0, 0, 0, 0, 0, 0, 0, 0, 0, 0, 0, 0, 0, 0, 0, 0, 0, 
[2024-06-13 11:56:34.212692] [0x0000007f820829a0] [LogDataTag] [0x00000af8] [469] 1718294193138008, 1.07419, 0, 0, 0, 0, 0, 0, 0, 0, 0, 0, 0, 0, 1.8445e+13, 0.102945, -0.1321, -0.310201, 0.998977, -0.00899849, -0.0171964, -0.0408367, 0.000220813, -0.000573825, 0.000425278, -0.000609772, -0.00310643, 0.00641033, -0.0165851, -0.0350997, -0.0814204, 0, 0, 0, 0, 0, 0, 0, 0, 0, 0, 0, 0, 0, 0, 0, 0, 0, 0, 0, 0, 0, 0, 0, 0, 0, 0, 0, 0, 0, 0, 0, 0, 0, 0, 0, 0, 0, 0, 0, 0, 0, 0, 0, 0, 0, 0, 0, 0, 0, 0, 0, 0, 0, 0, 0, 0, 0, 0, 0, 0, 0, 0, 0, 0, 0, 0, 0, 0, 0, 0, 0, 
[2024-06-13 11:56:34.222612] [0x0000007f818819a0] [LogDataTag] [0x00000af8] [474] 1718294193138008, 1.08418, 0, 0, 0, 0, 0, 0, 0, 0, 0, 0, 0, 0, 1.8445e+13, 0.102948, -0.13211, -0.310206, 0.998976, -0.00899985, -0.017197, -0.0408769, 0.000160422, -0.00172052, 0.00012419, -0.00144098, -0.000469278, -0.0119006, -0.0165863, -0.0351017, -0.0815009, 0, 0, 0, 0, 0, 0, 0, 0, 0, 0, 0, 0, 0, 0, 0, 0, 0, 0, 0, 0, 0, 0, 0, 0, 0, 0, 0, 0, 0, 0, 0, 0, 0, 0, 0, 0, 0, 0, 0, 0, 0, 0, 0, 0, 0, 0, 0, 0, 0, 0, 0, 0, 0, 0, 0, 0, 0, 0, 0, 0, 0, 0, 0, 0, 0, 0, 0, 0, 0, 0, 0, 
[2024-06-13 11:56:34.232625] [0x0000007f810809a0] [LogDataTag] [0x00000af8] [478] 1718294193138008, 1.09415, 0, 0, 0, 0, 0, 0, 0, 0, 0, 0, 0, 0, 1.8445e+13, 0.102953, -0.13213, -0.310213, 0.998972, -0.00900133, -0.0171981, -0.0409686, 0.00030843, -0.0022031, -0.000221056, -0.000166315, 0.00089078, -0.0192159, -0.016586, -0.0351056, -0.0816843, 0, 0, 0, 0, 0, 0, 0, 0, 0, 0, 0, 0, 0, 0, 0, 0, 0, 0, 0, 0, 0, 0, 0, 0, 0, 0, 0, 0, 0, 0, 0, 0, 0, 0, 0, 0, 0, 0, 0, 0, 0, 0, 0, 0, 0, 0, 0, 0, 0, 0, 0, 0, 0, 0, 0, 0, 0, 0, 0, 0, 0, 0, 0, 0, 0, 0, 0, 0, 0, 0, 0, 
[2024-06-13 11:56:34.242648] [0x0000007f818819a0] [LogDataTag] [0x00000af8] [483] 1718294193138008, 1.10422, 0, 0, 0, 0, 0, 0, 0, 0, 0, 0, 0, 0, 1.8445e+13, 0.102965, -0.132151, -0.310228, 0.998968, -0.00900276, -0.017206, -0.0410505, 0.00047992, 0.000321655, 0.000494618, -4.05931e-05, -0.00413864, 0.003245, -0.0165853, -0.0351228, -0.0818482, 0, 0, 0, 0, 0, 0, 0, 0, 0, 0, 0, 0, 0, 0, 0, 0, 0, 0, 0, 0, 0, 0, 0, 0, 0, 0, 0, 0, 0, 0, 0, 0, 0, 0, 0, 0, 0, 0, 0, 0, 0, 0, 0, 0, 0, 0, 0, 0, 0, 0, 0, 0, 0, 0, 0, 0, 0, 0, 0, 0, 0, 0, 0, 0, 0, 0, 0, 0, 0, 0, 0, 
[2024-06-13 11:56:34.252637] [0x0000007f818819a0] [LogDataTag] [0x00000af8] [487] 1718294193138008, 1.11415, 0, 0, 0, 0, 0, 0, 0, 0, 0, 0, 0, 0, 1.8445e+13, 0.102965, -0.132151, -0.310228, 0.998968, -0.00900276, -0.017206, -0.0410505, 0.00047992, 0.000321655, 0.000494618, -4.05931e-05, -0.00413864, 0.003245, -0.0165853, -0.0351228, -0.0818482, 0, 0, 0, 0, 0, 0, 0, 0, 0, 0, 0, 0, 0, 0, 0, 0, 0, 0, 0, 0, 0, 0, 0, 0, 0, 0, 0, 0, 0, 0, 0, 0, 0, 0, 0, 0, 0, 0, 0, 0, 0, 0, 0, 0, 0, 0, 0, 0, 0, 0, 0, 0, 0, 0, 0, 0, 0, 0, 0, 0, 0, 0, 0, 0, 0, 0, 0, 0, 0, 0, 0, 
[2024-06-13 11:56:34.262602] [0x0000007f887dd010] [LogDataTag] [0x00000af8] [492] 1718294193138008, 1.12414, 0, 0, 0, 0, 0, 0, 0, 0, 0, 0, 0, 0, 1.8445e+13, 0.102972, -0.13214, -0.310234, 0.998972, -0.00899919, -0.0172109, -0.0409724, 0.000806489, 0.00128769, -0.000205566, 0.00268602, 0.000636167, 0.0183216, -0.0165805, -0.035131, -0.081692, 0, 0, 0, 0, 0, 0, 0, 0, 0, 0, 0, 0, 0, 0, 0, 0, 0, 0, 0, 0, 0, 0, 0, 0, 0, 0, 0, 0, 0, 0, 0, 0, 0, 0, 0, 0, 0, 0, 0, 0, 0, 0, 0, 0, 0, 0, 0, 0, 0, 0, 0, 0, 0, 0, 0, 0, 0, 0, 0, 0, 0, 0, 0, 0, 0, 0, 0, 0, 0, 0, 0, 
[2024-06-13 11:56:34.272668] [0x0000007f818819a0] [LogDataTag] [0x00000af8] [497] 1718294193138008, 1.13412, 0, 0, 0, 0, 0, 0, 0, 0, 0, 0, 0, 0, 1.8445e+13, 0.102987, -0.132129, -0.310247, 0.998975, -0.00898656, -0.0172021, -0.0408861, 0.000656833, -0.000764111, -0.000159575, 0.00087887, 0.00225853, -4.13286e-06, -0.016559, -0.035111, -0.0815196, 0, 0, 0, 0, 0, 0, 0, 0, 0, 0, 0, 0, 0, 0, 0, 0, 0, 0, 0, 0, 0, 0, 0, 0, 0, 0, 0, 0, 0, 0, 0, 0, 0, 0, 0, 0, 0, 0, 0, 0, 0, 0, 0, 0, 0, 0, 0, 0, 0, 0, 0, 0, 0, 0, 0, 0, 0, 0, 0, 0, 0, 0, 0, 0, 0, 0, 0, 0, 0, 0, 0, 
[2024-06-13 11:56:34.282615] [0x0000007f818819a0] [LogDataTag] [0x00000af8] [501] 1718294193138008, 1.14413, 0, 0, 0, 0, 0, 0, 0, 0, 0, 0, 0, 0, 1.8445e+13, 0.102987, -0.132129, -0.310247, 0.998975, -0.00898656, -0.0172021, -0.0408861, 0.000656833, -0.000764111, -0.000159575, 0.00087887, 0.00225853, -4.13286e-06, -0.016559, -0.035111, -0.0815196, 0, 0, 0, 0, 0, 0, 0, 0, 0, 0, 0, 0, 0, 0, 0, 0, 0, 0, 0, 0, 0, 0, 0, 0, 0, 0, 0, 0, 0, 0, 0, 0, 0, 0, 0, 0, 0, 0, 0, 0, 0, 0, 0, 0, 0, 0, 0, 0, 0, 0, 0, 0, 0, 0, 0, 0, 0, 0, 0, 0, 0, 0, 0, 0, 0, 0, 0, 0, 0, 0, 0, 
[2024-06-13 11:56:34.292817] [0x0000007f820829a0] [LogDataTag] [0x00000af8] [505] 1718294193138008, 1.15406, 0, 0, 0, 0, 0, 0, 0, 0, 0, 0, 0, 0, 1.8445e+13, 0.102998, -0.132149, -0.310256, 0.998972, -0.00899147, -0.0172088, -0.0409709, 0.000454586, -0.00146752, 0.000265734, 0.000753194, 0.000624199, -0.00926108, -0.0165653, -0.0351263, -0.0816893, 0, 0, 0, 0, 0, 0, 0, 0, 0, 0, 0, 0, 0, 0, 0, 0, 0, 0, 0, 0, 0, 0, 0, 0, 0, 0, 0, 0, 0, 0, 0, 0, 0, 0, 0, 0, 0, 0, 0, 0, 0, 0, 0, 0, 0, 0, 0, 0, 0, 0, 0, 0, 0, 0, 0, 0, 0, 0, 0, 0, 0, 0, 0, 0, 0, 0, 0, 0, 0, 0, 0, 
[2024-06-13 11:56:34.302663] [0x0000007f820829a0] [LogDataTag] [0x00000af8] [510] 1718294193138008, 1.16416, 0, 0, 0, 0, 0, 0, 0, 0, 0, 0, 0, 0, 1.8445e+13, 0.102998, -0.132149, -0.310256, 0.998972, -0.00899147, -0.0172088, -0.0409709, 0.000454586, -0.00146752, 0.000265734, 0.000753194, 0.000624199, -0.00926108, -0.0165653, -0.0351263, -0.0816893, 0, 0, 0, 0, 0, 0, 0, 0, 0, 0, 0, 0, 0, 0, 0, 0, 0, 0, 0, 0, 0, 0, 0, 0, 0, 0, 0, 0, 0, 0, 0, 0, 0, 0, 0, 0, 0, 0, 0, 0, 0, 0, 0, 0, 0, 0, 0, 0, 0, 0, 0, 0, 0, 0, 0, 0, 0, 0, 0, 0, 0, 0, 0, 0, 0, 0, 0, 0, 0, 0, 0, 
[2024-06-13 11:56:34.312553] [0x0000007f810809a0] [LogDataTag] [0x00000af8] [515] 1718294193138008, 1.17413, 0, 0, 0, 0, 0, 0, 0, 0, 0, 0, 0, 0, 1.8445e+13, 0.103003, -0.132162, -0.310259, 0.998969, -0.00898828, -0.0172221, -0.0410433, 0.000491252, -0.00181945, -6.98285e-05, 0.0012209, -0.0023098, -0.0169743, -0.0165553, -0.0351537, -0.0818342, 0, 0, 0, 0, 0, 0, 0, 0, 0, 0, 0, 0, 0, 0, 0, 0, 0, 0, 0, 0, 0, 0, 0, 0, 0, 0, 0, 0, 0, 0, 0, 0, 0, 0, 0, 0, 0, 0, 0, 0, 0, 0, 0, 0, 0, 0, 0, 0, 0, 0, 0, 0, 0, 0, 0, 0, 0, 0, 0, 0, 0, 0, 0, 0, 0, 0, 0, 0, 0, 0, 0, 
[2024-06-13 11:56:34.322618] [0x0000007f818819a0] [LogDataTag] [0x00000af8] [519] 1718294193138008, 1.18414, 0, 0, 0, 0, 0, 0, 0, 0, 0, 0, 0, 0, 1.8445e+13, 0.103009, -0.132162, -0.310266, 0.998969, -0.00900041, -0.0172124, -0.0410233, 0.000682897, 0.00196036, 3.027e-05, -0.00213869, 0.00275186, 0.0160766, -0.016581, -0.035135, -0.0817938, 0, 0, 0, 0, 0, 0, 0, 0, 0, 0, 0, 0, 0, 0, 0, 0, 0, 0, 0, 0, 0, 0, 0, 0, 0, 0, 0, 0, 0, 0, 0, 0, 0, 0, 0, 0, 0, 0, 0, 0, 0, 0, 0, 0, 0, 0, 0, 0, 0, 0, 0, 0, 0, 0, 0, 0, 0, 0, 0, 0, 0, 0, 0, 0, 0, 0, 0, 0, 0, 0, 0, 
[2024-06-13 11:56:34.332612] [0x0000007f887dd010] [LogDataTag] [0x00000af8] [523] 1718294193138008, 1.19412, 0, 0, 0, 0, 0, 0, 0, 0, 0, 0, 0, 0, 1.8445e+13, 0.103015, -0.132151, -0.310275, 0.998973, -0.00899358, -0.0172098, -0.0409362, 0.000745009, 0.0010132, -0.000786732, -0.00229723, 0.00320284, 0.017291, -0.0165707, -0.0351278, -0.0816197, 0, 0, 0, 0, 0, 0, 0, 0, 0, 0, 0, 0, 0, 0, 0, 0, 0, 0, 0, 0, 0, 0, 0, 0, 0, 0, 0, 0, 0, 0, 0, 0, 0, 0, 0, 0, 0, 0, 0, 0, 0, 0, 0, 0, 0, 0, 0, 0, 0, 0, 0, 0, 0, 0, 0, 0, 0, 0, 0, 0, 0, 0, 0, 0, 0, 0, 0, 0, 0, 0, 0, 
[2024-06-13 11:56:34.342565] [0x0000007f820829a0] [LogDataTag] [0x00000af8] [528] 1718294193138008, 1.20412, 0, 0, 0, 0, 0, 0, 0, 0, 0, 0, 0, 0, 1.8445e+13, 0.103023, -0.13213, -0.310284, 0.998979, -0.00899424, -0.0172074, -0.0407907, 0.000983493, 0.00172311, -0.000121228, 0.00540643, -0.00308906, 0.0317043, -0.0165773, -0.0351206, -0.0813282, 0, 0, 0, 0, 0, 0, 0, 0, 0, 0, 0, 0, 0, 0, 0, 0, 0, 0, 0, 0, 0, 0, 0, 0, 0, 0, 0, 0, 0, 0, 0, 0, 0, 0, 0, 0, 0, 0, 0, 0, 0, 0, 0, 0, 0, 0, 0, 0, 0, 0, 0, 0, 0, 0, 0, 0, 0, 0, 0, 0, 0, 0, 0, 0, 0, 0, 0, 0, 0, 0, 0, 
[2024-06-13 11:56:34.352679] [0x0000007f810809a0] [LogDataTag] [0x00000af8] [533] 1718294193138008, 1.21417, 0, 0, 0, 0, 0, 0, 0, 0, 0, 0, 0, 0, 1.8445e+13, 0.10303, -0.132145, -0.310297, 0.998978, -0.0089556, -0.0171874, -0.0408241, 0.000351944, -0.00423043, -0.000702321, 0.00116841, 0.00557089, -0.0209185, -0.0165005, -0.0350781, -0.0813969, 0, 0, 0, 0, 0, 0, 0, 0, 0, 0, 0, 0, 0, 0, 0, 0, 0, 0, 0, 0, 0, 0, 0, 0, 0, 0, 0, 0, 0, 0, 0, 0, 0, 0, 0, 0, 0, 0, 0, 0, 0, 0, 0, 0, 0, 0, 0, 0, 0, 0, 0, 0, 0, 0, 0, 0, 0, 0, 0, 0, 0, 0, 0, 0, 0, 0, 0, 0, 0, 0, 0, 
[2024-06-13 11:56:34.362641] [0x0000007f818819a0] [LogDataTag] [0x00000af8] [537] 1718294193138008, 1.22416, 0, 0, 0, 0, 0, 0, 0, 0, 0, 0, 0, 0, 1.8445e+13, 0.103033, -0.132189, -0.310302, 0.998969, -0.0089901, -0.0171989, -0.0410478, 0.000306757, -0.00522327, -0.000339994, 0.000264445, -0.00142167, -0.0480369, -0.0165607, -0.0351076, -0.0818434, 0, 0, 0, 0, 0, 0, 0, 0, 0, 0, 0, 0, 0, 0, 0, 0, 0, 0, 0, 0, 0, 0, 0, 0, 0, 0, 0, 0, 0, 0, 0, 0, 0, 0, 0, 0, 0, 0, 0, 0, 0, 0, 0, 0, 0, 0, 0, 0, 0, 0, 0, 0, 0, 0, 0, 0, 0, 0, 0, 0, 0, 0, 0, 0, 0, 0, 0, 0, 0, 0, 0, 
[2024-06-13 11:56:34.372612] [0x0000007f887dd010] [LogDataTag] [0x00000af8] [542] 1718294193138008, 1.23418, 0, 0, 0, 0, 0, 0, 0, 0, 0, 0, 0, 0, 1.8445e+13, 0.103036, -0.132229, -0.310305, 0.99896, -0.00901059, -0.0172123, -0.0412421, 0.000555486, -0.00290346, 0.000400998, -0.0126516, -0.0051592, -0.0318174, -0.0165937, -0.0351393, -0.0822316, 0, 0, 0, 0, 0, 0, 0, 0, 0, 0, 0, 0, 0, 0, 0, 0, 0, 0, 0, 0, 0, 0, 0, 0, 0, 0, 0, 0, 0, 0, 0, 0, 0, 0, 0, 0, 0, 0, 0, 0, 0, 0, 0, 0, 0, 0, 0, 0, 0, 0, 0, 0, 0, 0, 0, 0, 0, 0, 0, 0, 0, 0, 0, 0, 0, 0, 0, 0, 0, 0, 0, 
[2024-06-13 11:56:34.382634] [0x0000007f820829a0] [LogDataTag] [0x00000af8] [546] 1718294193138008, 1.24415, 0, 0, 0, 0, 0, 0, 0, 0, 0, 0, 0, 0, 1.8445e+13, 0.103044, -0.132233, -0.310305, 0.99896, -0.00902756, -0.0172285, -0.0412274, 0.00114614, 0.00142323, 0.000448328, 0.00564389, -0.00209732, 0.0159863, -0.0166268, -0.0351728, -0.0822014, 0, 0, 0, 0, 0, 0, 0, 0, 0, 0, 0, 0, 0, 0, 0, 0, 0, 0, 0, 0, 0, 0, 0, 0, 0, 0, 0, 0, 0, 0, 0, 0, 0, 0, 0, 0, 0, 0, 0, 0, 0, 0, 0, 0, 0, 0, 0, 0, 0, 0, 0, 0, 0, 0, 0, 0, 0, 0, 0, 0, 0, 0, 0, 0, 0, 0, 0, 0, 0, 0, 0, 
[2024-06-13 11:56:34.392632] [0x0000007f810809a0] [LogDataTag] [0x00000af8] [551] 1718294193138008, 1.25414, 0, 0, 0, 0, 0, 0, 0, 0, 0, 0, 0, 0, 1.8445e+13, 0.103054, -0.132204, -0.310306, 0.998969, -0.0090139, -0.0172279, -0.0410315, 0.00124287, 0.00309407, -0.000263217, -0.000589366, 0.00181533, 0.0440329, -0.0166065, -0.0351672, -0.0818095, 0, 0, 0, 0, 0, 0, 0, 0, 0, 0, 0, 0, 0, 0, 0, 0, 0, 0, 0, 0, 0, 0, 0, 0, 0, 0, 0, 0, 0, 0, 0, 0, 0, 0, 0, 0, 0, 0, 0, 0, 0, 0, 0, 0, 0, 0, 0, 0, 0, 0, 0, 0, 0, 0, 0, 0, 0, 0, 0, 0, 0, 0, 0, 0, 0, 0, 0, 0, 0, 0, 0, 
[2024-06-13 11:56:34.402639] [0x0000007f818819a0] [LogDataTag] [0x00000af8] [556] 1718294193138008, 1.26417, 0, 0, 0, 0, 0, 0, 0, 0, 0, 0, 0, 0, 1.8445e+13, 0.103065, -0.13217, -0.310313, 0.998979, -0.00897057, -0.0171918, -0.0408132, 0.000932592, 0.00240864, 0.000170124, 0.0127281, 0.00668004, 0.0418051, -0.0165304, -0.0350879, -0.0813744, 0, 0, 0, 0, 0, 0, 0, 0, 0, 0, 0, 0, 0, 0, 0, 0, 0, 0, 0, 0, 0, 0, 0, 0, 0, 0, 0, 0, 0, 0, 0, 0, 0, 0, 0, 0, 0, 0, 0, 0, 0, 0, 0, 0, 0, 0, 0, 0, 0, 0, 0, 0, 0, 0, 0, 0, 0, 0, 0, 0, 0, 0, 0, 0, 0, 0, 0, 0, 0, 0, 0, 
[2024-06-13 11:56:34.412903] [0x0000007f887dd010] [LogDataTag] [0x00000af8] [560] 1718294193138008, 1.27406, 0, 0, 0, 0, 0, 0, 0, 0, 0, 0, 0, 0, 1.8445e+13, 0.103076, -0.132185, -0.310317, 0.998977, -0.00899369, -0.0171778, -0.0408594, 0.00032974, -0.00373635, 0.00069378, -0.000739811, -0.00487179, -0.0308558, -0.0165762, -0.0350627, -0.0814663, 0, 0, 0, 0, 0, 0, 0, 0, 0, 0, 0, 0, 0, 0, 0, 0, 0, 0, 0, 0, 0, 0, 0, 0, 0, 0, 0, 0, 0, 0, 0, 0, 0, 0, 0, 0, 0, 0, 0, 0, 0, 0, 0, 0, 0, 0, 0, 0, 0, 0, 0, 0, 0, 0, 0, 0, 0, 0, 0, 0, 0, 0, 0, 0, 0, 0, 0, 0, 0, 0, 0, 
[2024-06-13 11:56:34.422891] [0x0000007f887dd010] [LogDataTag] [0x00000af8] [565] 1718294193138008, 1.28446, 0, 0, 0, 0, 0, 0, 0, 0, 0, 0, 0, 0, 1.8445e+13, 0.103076, -0.132185, -0.310317, 0.998977, -0.00899369, -0.0171778, -0.0408594, 0.00032974, -0.00373635, 0.00069378, -0.000739811, -0.00487179, -0.0308558, -0.0165762, -0.0350627, -0.0814663, 0, 0, 0, 0, 0, 0, 0, 0, 0, 0, 0, 0, 0, 0, 0, 0, 0, 0, 0, 0, 0, 0, 0, 0, 0, 0, 0, 0, 0, 0, 0, 0, 0, 0, 0, 0, 0, 0, 0, 0, 0, 0, 0, 0, 0, 0, 0, 0, 0, 0, 0, 0, 0, 0, 0, 0, 0, 0, 0, 0, 0, 0, 0, 0, 0, 0, 0, 0, 0, 0, 0, 
[2024-06-13 11:56:34.432657] [0x0000007f810809a0] [LogDataTag] [0x00000af8] [569] 1718294193138008, 1.29416, 0, 0, 0, 0, 0, 0, 0, 0, 0, 0, 0, 0, 1.8445e+13, 0.103078, -0.132224, -0.310314, 0.998967, -0.00901812, -0.0172055, -0.0410806, 0.000332635, -0.00447569, 0.000411418, -0.00841856, -0.00567837, -0.0448851, -0.016615, -0.0351236, -0.081908, 0, 0, 0, 0, 0, 0, 0, 0, 0, 0, 0, 0, 0, 0, 0, 0, 0, 0, 0, 0, 0, 0, 0, 0, 0, 0, 0, 0, 0, 0, 0, 0, 0, 0, 0, 0, 0, 0, 0, 0, 0, 0, 0, 0, 0, 0, 0, 0, 0, 0, 0, 0, 0, 0, 0, 0, 0, 0, 0, 0, 0, 0, 0, 0, 0, 0, 0, 0, 0, 0, 0, 
[2024-06-13 11:56:34.442647] [0x0000007f820829a0] [LogDataTag] [0x00000af8] [574] 1718294193138008, 1.30413, 0, 0, 0, 0, 0, 0, 0, 0, 0, 0, 0, 0, 1.8445e+13, 0.103083, -0.13225, -0.310316, 0.998961, -0.00900356, -0.0172268, -0.0412218, 0.000952723, -0.00162485, -0.000708297, 0.00561884, -0.00222638, -0.0197905, -0.0165792, -0.0351673, -0.0821911, 0, 0, 0, 0, 0, 0, 0, 0, 0, 0, 0, 0, 0, 0, 0, 0, 0, 0, 0, 0, 0, 0, 0, 0, 0, 0, 0, 0, 0, 0, 0, 0, 0, 0, 0, 0, 0, 0, 0, 0, 0, 0, 0, 0, 0, 0, 0, 0, 0, 0, 0, 0, 0, 0, 0, 0, 0, 0, 0, 0, 0, 0, 0, 0, 0, 0, 0, 0, 0, 0, 0, 
[2024-06-13 11:56:34.452575] [0x0000007f818819a0] [LogDataTag] [0x00000af8] [579] 1718294193138008, 1.31415, 0, 0, 0, 0, 0, 0, 0, 0, 0, 0, 0, 0, 1.8445e+13, 0.103089, -0.13225, -0.31033, 0.998963, -0.0090002, -0.0172044, -0.0411853, 0.000728098, 0.00114551, -0.00132558, -0.00240608, 0.0079378, 0.0157038, -0.0165756, -0.0351217, -0.0821183, 0, 0, 0, 0, 0, 0, 0, 0, 0, 0, 0, 0, 0, 0, 0, 0, 0, 0, 0, 0, 0, 0, 0, 0, 0, 0, 0, 0, 0, 0, 0, 0, 0, 0, 0, 0, 0, 0, 0, 0, 0, 0, 0, 0, 0, 0, 0, 0, 0, 0, 0, 0, 0, 0, 0, 0, 0, 0, 0, 0, 0, 0, 0, 0, 0, 0, 0, 0, 0, 0, 0, 
[2024-06-13 11:56:34.462679] [0x0000007f820829a0] [LogDataTag] [0x00000af8] [583] 1718294193138008, 1.32417, 0, 0, 0, 0, 0, 0, 0, 0, 0, 0, 0, 0, 1.8445e+13, 0.103096, -0.132225, -0.310345, 0.998971, -0.00898035, -0.0171729, -0.0410078, 0.00118558, 0.00257472, -0.00119686, 0.00509511, 0.00541549, 0.0383266, -0.0165447, -0.0350541, -0.081764, 0, 0, 0, 0, 0, 0, 0, 0, 0, 0, 0, 0, 0, 0, 0, 0, 0, 0, 0, 0, 0, 0, 0, 0, 0, 0, 0, 0, 0, 0, 0, 0, 0, 0, 0, 0, 0, 0, 0, 0, 0, 0, 0, 0, 0, 0, 0, 0, 0, 0, 0, 0, 0, 0, 0, 0, 0, 0, 0, 0, 0, 0, 0, 0, 0, 0, 0, 0, 0, 0, 0, 
[2024-06-13 11:56:34.472645] [0x0000007f810809a0] [LogDataTag] [0x00000af8] [588] 1718294193138008, 1.33415, 0, 0, 0, 0, 0, 0, 0, 0, 0, 0, 0, 0, 1.8445e+13, 0.103106, -0.132202, -0.310357, 0.998978, -0.0089907, -0.0171531, -0.0408404, 0.00109225, 0.000699749, -0.00108762, -0.00153361, 0.00359724, 0.0278278, -0.0165729, -0.0350126, -0.0814287, 0, 0, 0, 0, 0, 0, 0, 0, 0, 0, 0, 0, 0, 0, 0, 0, 0, 0, 0, 0, 0, 0, 0, 0, 0, 0, 0, 0, 0, 0, 0, 0, 0, 0, 0, 0, 0, 0, 0, 0, 0, 0, 0, 0, 0, 0, 0, 0, 0, 0, 0, 0, 0, 0, 0, 0, 0, 0, 0, 0, 0, 0, 0, 0, 0, 0, 0, 0, 0, 0, 0, 
[2024-06-13 11:56:34.482651] [0x0000007f887dd010] [LogDataTag] [0x00000af8] [592] 1718294193138008, 1.34414, 0, 0, 0, 0, 0, 0, 0, 0, 0, 0, 0, 0, 1.8445e+13, 0.103112, -0.1322, -0.310362, 0.998979, -0.00896615, -0.0171543, -0.0408106, 0.000688965, -0.00118506, 0.000379183, 0.00530506, -0.00292673, -0.00209652, -0.0165247, -0.0350125, -0.0813698, 0, 0, 0, 0, 0, 0, 0, 0, 0, 0, 0, 0, 0, 0, 0, 0, 0, 0, 0, 0, 0, 0, 0, 0, 0, 0, 0, 0, 0, 0, 0, 0, 0, 0, 0, 0, 0, 0, 0, 0, 0, 0, 0, 0, 0, 0, 0, 0, 0, 0, 0, 0, 0, 0, 0, 0, 0, 0, 0, 0, 0, 0, 0, 0, 0, 0, 0, 0, 0, 0, 0, 
[2024-06-13 11:56:34.492606] [0x0000007f818819a0] [LogDataTag] [0x00000af8] [597] 1718294193138008, 1.35413, 0, 0, 0, 0, 0, 0, 0, 0, 0, 0, 0, 0, 1.8445e+13, 0.103116, -0.132222, -0.310361, 0.998974, -0.00897633, -0.0171715, -0.0409248, 0.000689696, -0.00363026, -4.88375e-05, -0.00321629, -0.001569, -0.0265961, -0.0165397, -0.0350496, -0.081598, 0, 0, 0, 0, 0, 0, 0, 0, 0, 0, 0, 0, 0, 0, 0, 0, 0, 0, 0, 0, 0, 0, 0, 0, 0, 0, 0, 0, 0, 0, 0, 0, 0, 0, 0, 0, 0, 0, 0, 0, 0, 0, 0, 0, 0, 0, 0, 0, 0, 0, 0, 0, 0, 0, 0, 0, 0, 0, 0, 0, 0, 0, 0, 0, 0, 0, 0, 0, 0, 0, 0, 
[2024-06-13 11:56:34.502600] [0x0000007f820829a0] [LogDataTag] [0x00000af8] [601] 1718294193138008, 1.36412, 0, 0, 0, 0, 0, 0, 0, 0, 0, 0, 0, 0, 1.8445e+13, 0.103118, -0.132254, -0.310359, 0.998968, -0.00898946, -0.0171709, -0.0410874, 0.000270805, -0.00313876, 0.000828452, -0.0050754, -0.00184057, -0.0307212, -0.0165603, -0.0350522, -0.0819231, 0, 0, 0, 0, 0, 0, 0, 0, 0, 0, 0, 0, 0, 0, 0, 0, 0, 0, 0, 0, 0, 0, 0, 0, 0, 0, 0, 0, 0, 0, 0, 0, 0, 0, 0, 0, 0, 0, 0, 0, 0, 0, 0, 0, 0, 0, 0, 0, 0, 0, 0, 0, 0, 0, 0, 0, 0, 0, 0, 0, 0, 0, 0, 0, 0, 0, 0, 0, 0, 0, 0, 
[2024-06-13 11:56:34.512639] [0x0000007f810809a0] [LogDataTag] [0x00000af8] [606] 1718294193138008, 1.37416, 0, 0, 0, 0, 0, 0, 0, 0, 0, 0, 0, 0, 1.8445e+13, 0.103118, -0.132271, -0.310354, 0.998964, -0.00901436, -0.0171718, -0.0411727, 0.000515811, -0.00108283, 0.000308247, -0.00157874, 0.00174705, -0.00967124, -0.016607, -0.0350575, -0.082093, 0, 0, 0, 0, 0, 0, 0, 0, 0, 0, 0, 0, 0, 0, 0, 0, 0, 0, 0, 0, 0, 0, 0, 0, 0, 0, 0, 0, 0, 0, 0, 0, 0, 0, 0, 0, 0, 0, 0, 0, 0, 0, 0, 0, 0, 0, 0, 0, 0, 0, 0, 0, 0, 0, 0, 0, 0, 0, 0, 0, 0, 0, 0, 0, 0, 0, 0, 0, 0, 0, 0, 
[2024-06-13 11:56:34.522576] [0x0000007f887dd010] [LogDataTag] [0x00000af8] [610] 1718294193138008, 1.3841, 0, 0, 0, 0, 0, 0, 0, 0, 0, 0, 0, 0, 1.8445e+13, 0.103122, -0.132265, -0.31035, 0.998966, -0.00900636, -0.0171707, -0.0411226, 0.000660317, 0.000911528, 0.000408565, 0.00342423, -0.00027234, 0.0172524, -0.0165928, -0.0350537, -0.081993, 0, 0, 0, 0, 0, 0, 0, 0, 0, 0, 0, 0, 0, 0, 0, 0, 0, 0, 0, 0, 0, 0, 0, 0, 0, 0, 0, 0, 0, 0, 0, 0, 0, 0, 0, 0, 0, 0, 0, 0, 0, 0, 0, 0, 0, 0, 0, 0, 0, 0, 0, 0, 0, 0, 0, 0, 0, 0, 0, 0, 0, 0, 0, 0, 0, 0, 0, 0, 0, 0, 0, 
[2024-06-13 11:56:34.532564] [0x0000007f818819a0] [LogDataTag] [0x00000af8] [615] 1718294193138008, 1.39415, 0, 0, 0, 0, 0, 0, 0, 0, 0, 0, 0, 0, 1.8445e+13, 0.103126, -0.132247, -0.310351, 0.998972, -0.00899171, -0.0171608, -0.0409837, 0.000830918, 0.00145013, -0.000476431, 0.00405224, 0.00224147, 0.0295017, -0.0165692, -0.0350304, -0.0817155, 0, 0, 0, 0, 0, 0, 0, 0, 0, 0, 0, 0, 0, 0, 0, 0, 0, 0, 0, 0, 0, 0, 0, 0, 0, 0, 0, 0, 0, 0, 0, 0, 0, 0, 0, 0, 0, 0, 0, 0, 0, 0, 0, 0, 0, 0, 0, 0, 0, 0, 0, 0, 0, 0, 0, 0, 0, 0, 0, 0, 0, 0, 0, 0, 0, 0, 0, 0, 0, 0, 0, 
[2024-06-13 11:56:34.543078] [0x0000007f820829a0] [LogDataTag] [0x00000af8] [619] 1718294193138008, 1.40416, 0, 0, 0, 0, 0, 0, 0, 0, 0, 0, 0, 0, 1.8445e+13, 0.10313, -0.132234, -0.310357, 0.998977, -0.00898044, -0.0171523, -0.0408616, 0.00061887, 2.57356e-06, -0.000774735, -8.61177e-05, 0.000710428, 0.0205559, -0.0165517, -0.0350106, -0.0814716, 0, 0, 0, 0, 0, 0, 0, 0, 0, 0, 0, 0, 0, 0, 0, 0, 0, 0, 0, 0, 0, 0, 0, 0, 0, 0, 0, 0, 0, 0, 0, 0, 0, 0, 0, 0, 0, 0, 0, 0, 0, 0, 0, 0, 0, 0, 0, 0, 0, 0, 0, 0, 0, 0, 0, 0, 0, 0, 0, 0, 0, 0, 0, 0, 0, 0, 0, 0, 0, 0, 0, 
[2024-06-13 11:56:34.552630] [0x0000007f820829a0] [LogDataTag] [0x00000af8] [623] 1718294193138008, 1.41416, 0, 0, 0, 0, 0, 0, 0, 0, 0, 0, 0, 0, 1.8445e+13, 0.10313, -0.132239, -0.310366, 0.998978, -0.00899075, -0.0171382, -0.0408531, 0.000223846, -0.00196172, -0.000824045, -0.00115102, 0.00176347, -0.00333397, -0.0165737, -0.0349831, -0.0814543, 0, 0, 0, 0, 0, 0, 0, 0, 0, 0, 0, 0, 0, 0, 0, 0, 0, 0, 0, 0, 0, 0, 0, 0, 0, 0, 0, 0, 0, 0, 0, 0, 0, 0, 0, 0, 0, 0, 0, 0, 0, 0, 0, 0, 0, 0, 0, 0, 0, 0, 0, 0, 0, 0, 0, 0, 0, 0, 0, 0, 0, 0, 0, 0, 0, 0, 0, 0, 0, 0, 0, 
[2024-06-13 11:56:34.562621] [0x0000007f818819a0] [LogDataTag] [0x00000af8] [628] 1718294193138008, 1.42416, 0, 0, 0, 0, 0, 0, 0, 0, 0, 0, 0, 0, 1.8445e+13, 0.103128, -0.13226, -0.310375, 0.998973, -0.00899858, -0.0171386, -0.0409637, 0.000171091, -0.00347573, -0.0012141, -0.000909116, -0.000129321, -0.0264183, -0.0165855, -0.0349865, -0.0816755, 0, 0, 0, 0, 0, 0, 0, 0, 0, 0, 0, 0, 0, 0, 0, 0, 0, 0, 0, 0, 0, 0, 0, 0, 0, 0, 0, 0, 0, 0, 0, 0, 0, 0, 0, 0, 0, 0, 0, 0, 0, 0, 0, 0, 0, 0, 0, 0, 0, 0, 0, 0, 0, 0, 0, 0, 0, 0, 0, 0, 0, 0, 0, 0, 0, 0, 0, 0, 0, 0, 0, 
[2024-06-13 11:56:34.572505] [0x0000007f820829a0] [LogDataTag] [0x00000af8] [633] 1718294193138008, 1.43407, 0, 0, 0, 0, 0, 0, 0, 0, 0, 0, 0, 0, 1.8445e+13, 0.103125, -0.132299, -0.310384, 0.998964, -0.00900843, -0.0171663, -0.0411619, 0.000447169, -0.000844269, -0.000665827, -0.00250881, -0.00165173, -0.00683652, -0.016596, -0.0350459, -0.0820717, 0, 0, 0, 0, 0, 0, 0, 0, 0, 0, 0, 0, 0, 0, 0, 0, 0, 0, 0, 0, 0, 0, 0, 0, 0, 0, 0, 0, 0, 0, 0, 0, 0, 0, 0, 0, 0, 0, 0, 0, 0, 0, 0, 0, 0, 0, 0, 0, 0, 0, 0, 0, 0, 0, 0, 0, 0, 0, 0, 0, 0, 0, 0, 0, 0, 0, 0, 0, 0, 0, 0, 
[2024-06-13 11:56:34.582640] [0x0000007f820829a0] [LogDataTag] [0x00000af8] [636] 1718294193138008, 1.44415, 0, 0, 0, 0, 0, 0, 0, 0, 0, 0, 0, 0, 1.8445e+13, 0.103125, -0.132299, -0.310384, 0.998964, -0.00900843, -0.0171663, -0.0411619, 0.000447169, -0.000844269, -0.000665827, -0.00250881, -0.00165173, -0.00683652, -0.016596, -0.0350459, -0.0820717, 0, 0, 0, 0, 0, 0, 0, 0, 0, 0, 0, 0, 0, 0, 0, 0, 0, 0, 0, 0, 0, 0, 0, 0, 0, 0, 0, 0, 0, 0, 0, 0, 0, 0, 0, 0, 0, 0, 0, 0, 0, 0, 0, 0, 0, 0, 0, 0, 0, 0, 0, 0, 0, 0, 0, 0, 0, 0, 0, 0, 0, 0, 0, 0, 0, 0, 0, 0, 0, 0, 0, 
[2024-06-13 11:56:34.592631] [0x0000007f887dd010] [LogDataTag] [0x00000af8] [641] 1718294193138008, 1.45414, 0, 0, 0, 0, 0, 0, 0, 0, 0, 0, 0, 0, 1.8445e+13, 0.103126, -0.132293, -0.310388, 0.998967, -0.00900423, -0.0171598, -0.0411059, 0.000701258, 0.000713657, -0.000610593, 0.00237019, 0.00203624, 0.0160261, -0.0165901, -0.0350315, -0.0819597, 0, 0, 0, 0, 0, 0, 0, 0, 0, 0, 0, 0, 0, 0, 0, 0, 0, 0, 0, 0, 0, 0, 0, 0, 0, 0, 0, 0, 0, 0, 0, 0, 0, 0, 0, 0, 0, 0, 0, 0, 0, 0, 0, 0, 0, 0, 0, 0, 0, 0, 0, 0, 0, 0, 0, 0, 0, 0, 0, 0, 0, 0, 0, 0, 0, 0, 0, 0, 0, 0, 0, 
[2024-06-13 11:56:34.602654] [0x0000007f818819a0] [LogDataTag] [0x00000af8] [646] 1718294193138008, 1.46415, 0, 0, 0, 0, 0, 0, 0, 0, 0, 0, 0, 0, 1.8445e+13, 0.103128, -0.132276, -0.310392, 0.998972, -0.00899949, -0.0171399, -0.0409839, 0.000616715, 0.00104478, -0.000173319, 0.000742372, 0.00258123, 0.0258595, -0.0165865, -0.0349894, -0.0817159, 0, 0, 0, 0, 0, 0, 0, 0, 0, 0, 0, 0, 0, 0, 0, 0, 0, 0, 0, 0, 0, 0, 0, 0, 0, 0, 0, 0, 0, 0, 0, 0, 0, 0, 0, 0, 0, 0, 0, 0, 0, 0, 0, 0, 0, 0, 0, 0, 0, 0, 0, 0, 0, 0, 0, 0, 0, 0, 0, 0, 0, 0, 0, 0, 0, 0, 0, 0, 0, 0, 0, 
[2024-06-13 11:56:34.612594] [0x0000007f810809a0] [LogDataTag] [0x00000af8] [650] 1718294193138008, 1.47413, 0, 0, 0, 0, 0, 0, 0, 0, 0, 0, 0, 0, 1.8445e+13, 0.103129, -0.132266, -0.310393, 0.998976, -0.00898444, -0.0171263, -0.0409079, 0.000657824, -0.000259355, -0.000300824, 0.00417442, 0.0030824, 0.01169, -0.0165601, -0.0349597, -0.0815645, 0, 0, 0, 0, 0, 0, 0, 0, 0, 0, 0, 0, 0, 0, 0, 0, 0, 0, 0, 0, 0, 0, 0, 0, 0, 0, 0, 0, 0, 0, 0, 0, 0, 0, 0, 0, 0, 0, 0, 0, 0, 0, 0, 0, 0, 0, 0, 0, 0, 0, 0, 0, 0, 0, 0, 0, 0, 0, 0, 0, 0, 0, 0, 0, 0, 0, 0, 0, 0, 0, 0, 
[2024-06-13 11:56:34.622629] [0x0000007f820829a0] [LogDataTag] [0x00000af8] [655] 1718294193138008, 1.48415, 0, 0, 0, 0, 0, 0, 0, 0, 0, 0, 0, 0, 1.8445e+13, 0.103128, -0.132269, -0.310391, 0.998975, -0.00898194, -0.0171269, -0.0409167, 0.000501151, -0.00202586, 0.000168765, -0.00102446, -0.00167906, -0.00702876, -0.0165548, -0.0349608, -0.0815821, 0, 0, 0, 0, 0, 0, 0, 0, 0, 0, 0, 0, 0, 0, 0, 0, 0, 0, 0, 0, 0, 0, 0, 0, 0, 0, 0, 0, 0, 0, 0, 0, 0, 0, 0, 0, 0, 0, 0, 0, 0, 0, 0, 0, 0, 0, 0, 0, 0, 0, 0, 0, 0, 0, 0, 0, 0, 0, 0, 0, 0, 0, 0, 0, 0, 0, 0, 0, 0, 0, 0, 
[2024-06-13 11:56:34.632616] [0x0000007f887dd010] [LogDataTag] [0x00000af8] [659] 1718294193138008, 1.49415, 0, 0, 0, 0, 0, 0, 0, 0, 0, 0, 0, 0, 1.8445e+13, 0.103128, -0.132289, -0.310388, 0.998971, -0.00898494, -0.0171407, -0.0410226, 0.000489551, -0.00263455, 0.000109256, -0.0024912, -0.00150794, -0.0228739, -0.016556, -0.0349904, -0.0817939, 0, 0, 0, 0, 0, 0, 0, 0, 0, 0, 0, 0, 0, 0, 0, 0, 0, 0, 0, 0, 0, 0, 0, 0, 0, 0, 0, 0, 0, 0, 0, 0, 0, 0, 0, 0, 0, 0, 0, 0, 0, 0, 0, 0, 0, 0, 0, 0, 0, 0, 0, 0, 0, 0, 0, 0, 0, 0, 0, 0, 0, 0, 0, 0, 0, 0, 0, 0, 0, 0, 0, 
[2024-06-13 11:56:34.642917] [0x0000007f818819a0] [LogDataTag] [0x00000af8] [664] 1718294193138008, 1.50415, 0, 0, 0, 0, 0, 0, 0, 0, 0, 0, 0, 0, 1.8445e+13, 0.103126, -0.132307, -0.310385, 0.998967, -0.00900361, -0.0171524, -0.041113, 0.000430623, -0.00228582, -0.000288429, -0.000343519, -0.00153925, -0.015706, -0.0165892, -0.0350168, -0.0819742, 0, 0, 0, 0, 0, 0, 0, 0, 0, 0, 0, 0, 0, 0, 0, 0, 0, 0, 0, 0, 0, 0, 0, 0, 0, 0, 0, 0, 0, 0, 0, 0, 0, 0, 0, 0, 0, 0, 0, 0, 0, 0, 0, 0, 0, 0, 0, 0, 0, 0, 0, 0, 0, 0, 0, 0, 0, 0, 0, 0, 0, 0, 0, 0, 0, 0, 0, 0, 0, 0, 0, 
[2024-06-13 11:56:34.652624] [0x0000007f810809a0] [LogDataTag] [0x00000af8] [668] 1718294193138008, 1.51416, 0, 0, 0, 0, 0, 0, 0, 0, 0, 0, 0, 0, 1.8445e+13, 0.103126, -0.132314, -0.310387, 0.998966, -0.00900375, -0.0171533, -0.0411334, 0.000606984, -0.000702344, -0.000687592, -0.000809275, 0.000494847, 0.00119582, -0.0165887, -0.0350189, -0.0820151, 0, 0, 0, 0, 0, 0, 0, 0, 0, 0, 0, 0, 0, 0, 0, 0, 0, 0, 0, 0, 0, 0, 0, 0, 0, 0, 0, 0, 0, 0, 0, 0, 0, 0, 0, 0, 0, 0, 0, 0, 0, 0, 0, 0, 0, 0, 0, 0, 0, 0, 0, 0, 0, 0, 0, 0, 0, 0, 0, 0, 0, 0, 0, 0, 0, 0, 0, 0, 0, 0, 0, 
[2024-06-13 11:56:34.662585] [0x0000007f820829a0] [LogDataTag] [0x00000af8] [672] 1718294193138008, 1.52412, 0, 0, 0, 0, 0, 0, 0, 0, 0, 0, 0, 0, 1.8445e+13, 0.103128, -0.132305, -0.310391, 0.998969, -0.00899145, -0.0171471, -0.0410577, 0.000973726, 0.00100221, -0.000953088, 0.00378285, 0.00161059, 0.0202651, -0.0165672, -0.0350042, -0.081864, 0, 0, 0, 0, 0, 0, 0, 0, 0, 0, 0, 0, 0, 0, 0, 0, 0, 0, 0, 0, 0, 0, 0, 0, 0, 0, 0, 0, 0, 0, 0, 0, 0, 0, 0, 0, 0, 0, 0, 0, 0, 0, 0, 0, 0, 0, 0, 0, 0, 0, 0, 0, 0, 0, 0, 0, 0, 0, 0, 0, 0, 0, 0, 0, 0, 0, 0, 0, 0, 0, 0, 
[2024-06-13 11:56:34.672686] [0x0000007f887dd010] [LogDataTag] [0x00000af8] [676] 1718294193138008, 1.53411, 0, 0, 0, 0, 0, 0, 0, 0, 0, 0, 0, 0, 1.8445e+13, 0.103131, -0.132291, -0.310399, 0.998975, -0.00899158, -0.0171346, -0.0409196, 0.000898417, 0.000978755, -0.00102374, -0.00349821, 0.00247949, 0.0317865, -0.0165733, -0.0349771, -0.0815874, 0, 0, 0, 0, 0, 0, 0, 0, 0, 0, 0, 0, 0, 0, 0, 0, 0, 0, 0, 0, 0, 0, 0, 0, 0, 0, 0, 0, 0, 0, 0, 0, 0, 0, 0, 0, 0, 0, 0, 0, 0, 0, 0, 0, 0, 0, 0, 0, 0, 0, 0, 0, 0, 0, 0, 0, 0, 0, 0, 0, 0, 0, 0, 0, 0, 0, 0, 0, 0, 0, 0, 
[2024-06-13 11:56:34.682623] [0x0000007f887dd010] [LogDataTag] [0x00000af8] [681] 1718294193138008, 1.54412, 0, 0, 0, 0, 0, 0, 0, 0, 0, 0, 0, 0, 1.8445e+13, 0.103131, -0.132278, -0.310403, 0.99898, -0.00896997, -0.0171277, -0.0408106, 0.000741256, -0.000668372, -0.000532474, 0.00722216, 0.000135041, 0.0153793, -0.0165345, -0.0349596, -0.0813701, 0, 0, 0, 0, 0, 0, 0, 0, 0, 0, 0, 0, 0, 0, 0, 0, 0, 0, 0, 0, 0, 0, 0, 0, 0, 0, 0, 0, 0, 0, 0, 0, 0, 0, 0, 0, 0, 0, 0, 0, 0, 0, 0, 0, 0, 0, 0, 0, 0, 0, 0, 0, 0, 0, 0, 0, 0, 0, 0, 0, 0, 0, 0, 0, 0, 0, 0, 0, 0, 0, 0, 
[2024-06-13 11:56:34.692561] [0x0000007f810809a0] [LogDataTag] [0x00000af8] [685] 1718294193138008, 1.5541, 0, 0, 0, 0, 0, 0, 0, 0, 0, 0, 0, 0, 1.8445e+13, 0.103127, -0.132305, -0.310404, 0.998974, -0.00899247, -0.0171306, -0.0409365, -5.79061e-05, -0.00510212, -0.000240118, -0.00749481, -1.5535e-05, -0.0384628, -0.0165749, -0.0349695, -0.0816213, 0, 0, 0, 0, 0, 0, 0, 0, 0, 0, 0, 0, 0, 0, 0, 0, 0, 0, 0, 0, 0, 0, 0, 0, 0, 0, 0, 0, 0, 0, 0, 0, 0, 0, 0, 0, 0, 0, 0, 0, 0, 0, 0, 0, 0, 0, 0, 0, 0, 0, 0, 0, 0, 0, 0, 0, 0, 0, 0, 0, 0, 0, 0, 0, 0, 0, 0, 0, 0, 0, 0, 
[2024-06-13 11:56:34.702546] [0x0000007f818819a0] [LogDataTag] [0x00000af8] [690] 1718294193138008, 1.56413, 0, 0, 0, 0, 0, 0, 0, 0, 0, 0, 0, 0, 1.8445e+13, 0.103122, -0.13234, -0.310402, 0.998966, -0.00899606, -0.0171486, -0.0411376, 0.00059958, -0.00307534, -0.000542475, 0.00216645, -0.00200269, -0.0337876, -0.0165735, -0.0350091, -0.0820238, 0, 0, 0, 0, 0, 0, 0, 0, 0, 0, 0, 0, 0, 0, 0, 0, 0, 0, 0, 0, 0, 0, 0, 0, 0, 0, 0, 0, 0, 0, 0, 0, 0, 0, 0, 0, 0, 0, 0, 0, 0, 0, 0, 0, 0, 0, 0, 0, 0, 0, 0, 0, 0, 0, 0, 0, 0, 0, 0, 0, 0, 0, 0, 0, 0, 0, 0, 0, 0, 0, 0, 
[2024-06-13 11:56:34.712623] [0x0000007f820829a0] [LogDataTag] [0x00000af8] [694] 1718294193138008, 1.57414, 0, 0, 0, 0, 0, 0, 0, 0, 0, 0, 0, 0, 1.8445e+13, 0.10312, -0.132357, -0.310399, 0.998962, -0.00901164, -0.0171686, -0.0412297, 0.000757798, -0.0021639, -0.000240924, -0.00511834, -0.00543167, -0.0126557, -0.0165998, -0.0350519, -0.0822073, 0, 0, 0, 0, 0, 0, 0, 0, 0, 0, 0, 0, 0, 0, 0, 0, 0, 0, 0, 0, 0, 0, 0, 0, 0, 0, 0, 0, 0, 0, 0, 0, 0, 0, 0, 0, 0, 0, 0, 0, 0, 0, 0, 0, 0, 0, 0, 0, 0, 0, 0, 0, 0, 0, 0, 0, 0, 0, 0, 0, 0, 0, 0, 0, 0, 0, 0, 0, 0, 0, 0, 
[2024-06-13 11:56:34.722766] [0x0000007f887dd010] [LogDataTag] [0x00000af8] [698] 1718294193138008, 1.58419, 0, 0, 0, 0, 0, 0, 0, 0, 0, 0, 0, 0, 1.8445e+13, 0.103121, -0.132359, -0.310398, 0.998963, -0.00901888, -0.0171643, -0.041191, 0.000693963, 0.000179906, -0.000409785, 0.00366279, 0.00131151, 0.0147737, -0.016616, -0.0350432, -0.0821297, 0, 0, 0, 0, 0, 0, 0, 0, 0, 0, 0, 0, 0, 0, 0, 0, 0, 0, 0, 0, 0, 0, 0, 0, 0, 0, 0, 0, 0, 0, 0, 0, 0, 0, 0, 0, 0, 0, 0, 0, 0, 0, 0, 0, 0, 0, 0, 0, 0, 0, 0, 0, 0, 0, 0, 0, 0, 0, 0, 0, 0, 0, 0, 0, 0, 0, 0, 0, 0, 0, 0, 
[2024-06-13 11:56:34.732615] [0x0000007f810809a0] [LogDataTag] [0x00000af8] [703] 1718294193138008, 1.59412, 0, 0, 0, 0, 0, 0, 0, 0, 0, 0, 0, 0, 1.8445e+13, 0.10312, -0.132342, -0.310397, 0.998969, -0.00900279, -0.0171508, -0.0410523, 0.000815696, 0.00118796, -0.000460851, 0.000949379, 0.00293279, 0.029012, -0.0165898, -0.0350127, -0.0818526, 0, 0, 0, 0, 0, 0, 0, 0, 0, 0, 0, 0, 0, 0, 0, 0, 0, 0, 0, 0, 0, 0, 0, 0, 0, 0, 0, 0, 0, 0, 0, 0, 0, 0, 0, 0, 0, 0, 0, 0, 0, 0, 0, 0, 0, 0, 0, 0, 0, 0, 0, 0, 0, 0, 0, 0, 0, 0, 0, 0, 0, 0, 0, 0, 0, 0, 0, 0, 0, 0, 0, 
[2024-06-13 11:56:34.742558] [0x0000007f818819a0] [LogDataTag] [0x00000af8] [708] 1718294193138008, 1.60413, 0, 0, 0, 0, 0, 0, 0, 0, 0, 0, 0, 0, 1.8445e+13, 0.10312, -0.132324, -0.310395, 0.998975, -0.00899627, -0.0171375, -0.0409148, 0.000696731, 0.000348991, -0.000149375, 0.00384622, 0.00116455, 0.0252337, -0.0165827, -0.0349831, -0.0815777, 0, 0, 0, 0, 0, 0, 0, 0, 0, 0, 0, 0, 0, 0, 0, 0, 0, 0, 0, 0, 0, 0, 0, 0, 0, 0, 0, 0, 0, 0, 0, 0, 0, 0, 0, 0, 0, 0, 0, 0, 0, 0, 0, 0, 0, 0, 0, 0, 0, 0, 0, 0, 0, 0, 0, 0, 0, 0, 0, 0, 0, 0, 0, 0, 0, 0, 0, 0, 0, 0, 0, 
[2024-06-13 11:56:34.752633] [0x0000007f820829a0] [LogDataTag] [0x00000af8] [712] 1718294193138008, 1.61418, 0, 0, 0, 0, 0, 0, 0, 0, 0, 0, 0, 0, 1.8445e+13, 0.103118, -0.132322, -0.310393, 0.998976, -0.00900485, -0.0171311, -0.0408958, 0.000455626, -0.00205591, -0.000251012, -0.00413752, 0.000238208, -0.00283042, -0.016601, -0.0349708, -0.0815394, 0, 0, 0, 0, 0, 0, 0, 0, 0, 0, 0, 0, 0, 0, 0, 0, 0, 0, 0, 0, 0, 0, 0, 0, 0, 0, 0, 0, 0, 0, 0, 0, 0, 0, 0, 0, 0, 0, 0, 0, 0, 0, 0, 0, 0, 0, 0, 0, 0, 0, 0, 0, 0, 0, 0, 0, 0, 0, 0, 0, 0, 0, 0, 0, 0, 0, 0, 0, 0, 0, 0, 
[2024-06-13 11:56:34.762679] [0x0000007f887dd010] [LogDataTag] [0x00000af8] [716] 1718294193138008, 1.62416, 0, 0, 0, 0, 0, 0, 0, 0, 0, 0, 0, 0, 1.8445e+13, 0.103112, -0.132342, -0.310386, 0.998972, -0.00900578, -0.0171521, -0.0409922, 0.000307344, -0.00361601, 0.000226777, 0.000678531, -0.00455309, -0.0240068, -0.0165978, -0.0350144, -0.0817322, 0, 0, 0, 0, 0, 0, 0, 0, 0, 0, 0, 0, 0, 0, 0, 0, 0, 0, 0, 0, 0, 0, 0, 0, 0, 0, 0, 0, 0, 0, 0, 0, 0, 0, 0, 0, 0, 0, 0, 0, 0, 0, 0, 0, 0, 0, 0, 0, 0, 0, 0, 0, 0, 0, 0, 0, 0, 0, 0, 0, 0, 0, 0, 0, 0, 0, 0, 0, 0, 0, 0, 
[2024-06-13 11:56:34.772578] [0x0000007f810809a0] [LogDataTag] [0x00000af8] [721] 1718294193138008, 1.63413, 0, 0, 0, 0, 0, 0, 0, 0, 0, 0, 0, 0, 1.8445e+13, 0.103107, -0.132367, -0.310382, 0.998966, -0.00902055, -0.0171679, -0.0411227, 0.000193114, -0.0029674, -0.00010373, -0.004478, -0.0031403, -0.0244665, -0.0166214, -0.0350494, -0.0819928, 0, 0, 0, 0, 0, 0, 0, 0, 0, 0, 0, 0, 0, 0, 0, 0, 0, 0, 0, 0, 0, 0, 0, 0, 0, 0, 0, 0, 0, 0, 0, 0, 0, 0, 0, 0, 0, 0, 0, 0, 0, 0, 0, 0, 0, 0, 0, 0, 0, 0, 0, 0, 0, 0, 0, 0, 0, 0, 0, 0, 0, 0, 0, 0, 0, 0, 0, 0, 0, 0, 0, 
[2024-06-13 11:56:34.782665] [0x0000007f818819a0] [LogDataTag] [0x00000af8] [725] 1718294193138008, 1.64415, 0, 0, 0, 0, 0, 0, 0, 0, 0, 0, 0, 0, 1.8445e+13, 0.103101, -0.132379, -0.310382, 0.998963, -0.0090095, -0.0171758, -0.041187, 0.000490006, -0.00138184, -0.000988468, 0.0027645, 0.00048931, -0.00733125, -0.0165964, -0.0350653, -0.0821218, 0, 0, 0, 0, 0, 0, 0, 0, 0, 0, 0, 0, 0, 0, 0, 0, 0, 0, 0, 0, 0, 0, 0, 0, 0, 0, 0, 0, 0, 0, 0, 0, 0, 0, 0, 0, 0, 0, 0, 0, 0, 0, 0, 0, 0, 0, 0, 0, 0, 0, 0, 0, 0, 0, 0, 0, 0, 0, 0, 0, 0, 0, 0, 0, 0, 0, 0, 0, 0, 0, 0, 
[2024-06-13 11:56:34.792703] [0x0000007f820829a0] [LogDataTag] [0x00000af8] [730] 1718294193138008, 1.65424, 0, 0, 0, 0, 0, 0, 0, 0, 0, 0, 0, 0, 1.8445e+13, 0.103097, -0.132373, -0.310385, 0.998966, -0.00900734, -0.0171594, -0.0411379, 0.000389244, 0.000283977, -0.000616137, 0.000123233, 0.00141941, 0.0158181, -0.0165952, -0.0350315, -0.0820239, 0, 0, 0, 0, 0, 0, 0, 0, 0, 0, 0, 0, 0, 0, 0, 0, 0, 0, 0, 0, 0, 0, 0, 0, 0, 0, 0, 0, 0, 0, 0, 0, 0, 0, 0, 0, 0, 0, 0, 0, 0, 0, 0, 0, 0, 0, 0, 0, 0, 0, 0, 0, 0, 0, 0, 0, 0, 0, 0, 0, 0, 0, 0, 0, 0, 0, 0, 0, 0, 0, 0, 
[2024-06-13 11:56:34.802599] [0x0000007f887dd010] [LogDataTag] [0x00000af8] [734] 1718294193138008, 1.66412, 0, 0, 0, 0, 0, 0, 0, 0, 0, 0, 0, 0, 1.8445e+13, 0.103093, -0.132359, -0.310389, 0.99897, -0.0089967, -0.0171467, -0.0410318, 0.000445398, 0.000446678, -0.000745996, 0.00343681, 0.00295547, 0.0217499, -0.0165787, -0.0350035, -0.0818119, 0, 0, 0, 0, 0, 0, 0, 0, 0, 0, 0, 0, 0, 0, 0, 0, 0, 0, 0, 0, 0, 0, 0, 0, 0, 0, 0, 0, 0, 0, 0, 0, 0, 0, 0, 0, 0, 0, 0, 0, 0, 0, 0, 0, 0, 0, 0, 0, 0, 0, 0, 0, 0, 0, 0, 0, 0, 0, 0, 0, 0, 0, 0, 0, 0, 0, 0, 0, 0, 0, 0, 
[2024-06-13 11:56:34.812592] [0x0000007f810809a0] [LogDataTag] [0x00000af8] [738] 1718294193138008, 1.67413, 0, 0, 0, 0, 0, 0, 0, 0, 0, 0, 0, 0, 1.8445e+13, 0.103088, -0.132349, -0.310389, 0.998973, -0.00899334, -0.0171436, -0.0409549, 0.000352697, -0.000754808, -0.000598221, 0.000836988, 1.38166e-05, 0.0119473, -0.0165749, -0.0349958, -0.081658, 0, 0, 0, 0, 0, 0, 0, 0, 0, 0, 0, 0, 0, 0, 0, 0, 0, 0, 0, 0, 0, 0, 0, 0, 0, 0, 0, 0, 0, 0, 0, 0, 0, 0, 0, 0, 0, 0, 0, 0, 0, 0, 0, 0, 0, 0, 0, 0, 0, 0, 0, 0, 0, 0, 0, 0, 0, 0, 0, 0, 0, 0, 0, 0, 0, 0, 0, 0, 0, 0, 0, 
[2024-06-13 11:56:34.822590] [0x0000007f818819a0] [LogDataTag] [0x00000af8] [743] 1718294193138008, 1.68412, 0, 0, 0, 0, 0, 0, 0, 0, 0, 0, 0, 0, 1.8445e+13, 0.103082, -0.132353, -0.310388, 0.998973, -0.00899083, -0.0171466, -0.0409574, 0.000121259, -0.00219231, -0.000353677, -0.000706128, -0.00131314, -0.00443637, -0.0165695, -0.0350016, -0.0816631, 0, 0, 0, 0, 0, 0, 0, 0, 0, 0, 0, 0, 0, 0, 0, 0, 0, 0, 0, 0, 0, 0, 0, 0, 0, 0, 0, 0, 0, 0, 0, 0, 0, 0, 0, 0, 0, 0, 0, 0, 0, 0, 0, 0, 0, 0, 0, 0, 0, 0, 0, 0, 0, 0, 0, 0, 0, 0, 0, 0, 0, 0, 0, 0, 0, 0, 0, 0, 0, 0, 0, 
[2024-06-13 11:56:34.832565] [0x0000007f820829a0] [LogDataTag] [0x00000af8] [748] 1718294193138008, 1.69412, 0, 0, 0, 0, 0, 0, 0, 0, 0, 0, 0, 0, 1.8445e+13, 0.103075, -0.132372, -0.310385, 0.99897, -0.00900304, -0.0171497, -0.0410436, 1.73055e-06, -0.00307674, -0.000436148, -0.003223, 0.000538499, -0.018791, -0.0165907, -0.0350102, -0.0818353, 0, 0, 0, 0, 0, 0, 0, 0, 0, 0, 0, 0, 0, 0, 0, 0, 0, 0, 0, 0, 0, 0, 0, 0, 0, 0, 0, 0, 0, 0, 0, 0, 0, 0, 0, 0, 0, 0, 0, 0, 0, 0, 0, 0, 0, 0, 0, 0, 0, 0, 0, 0, 0, 0, 0, 0, 0, 0, 0, 0, 0, 0, 0, 0, 0, 0, 0, 0, 0, 0, 0, 
[2024-06-13 11:56:34.842701] [0x0000007f887dd010] [LogDataTag] [0x00000af8] [752] 1718294193138008, 1.70416, 0, 0, 0, 0, 0, 0, 0, 0, 0, 0, 0, 0, 1.8445e+13, 0.103067, -0.132392, -0.310382, 0.998966, -0.00900733, -0.0171474, -0.0411368, 9.43518e-05, -0.00302741, -0.000335547, -0.00224047, 0.000494077, -0.0171267, -0.0165962, -0.0350076, -0.0820218, 0, 0, 0, 0, 0, 0, 0, 0, 0, 0, 0, 0, 0, 0, 0, 0, 0, 0, 0, 0, 0, 0, 0, 0, 0, 0, 0, 0, 0, 0, 0, 0, 0, 0, 0, 0, 0, 0, 0, 0, 0, 0, 0, 0, 0, 0, 0, 0, 0, 0, 0, 0, 0, 0, 0, 0, 0, 0, 0, 0, 0, 0, 0, 0, 0, 0, 0, 0, 0, 0, 0, 
[2024-06-13 11:56:34.852623] [0x0000007f810809a0] [LogDataTag] [0x00000af8] [757] 1718294193138008, 1.71415, 0, 0, 0, 0, 0, 0, 0, 0, 0, 0, 0, 0, 1.8445e+13, 0.10306, -0.132404, -0.310378, 0.998964, -0.00901097, -0.0171477, -0.0411738, -2.8668e-05, -0.00160814, 0.000181678, 0.000182588, -0.000450937, -0.00264387, -0.0166021, -0.035009, -0.0820957, 0, 0, 0, 0, 0, 0, 0, 0, 0, 0, 0, 0, 0, 0, 0, 0, 0, 0, 0, 0, 0, 0, 0, 0, 0, 0, 0, 0, 0, 0, 0, 0, 0, 0, 0, 0, 0, 0, 0, 0, 0, 0, 0, 0, 0, 0, 0, 0, 0, 0, 0, 0, 0, 0, 0, 0, 0, 0, 0, 0, 0, 0, 0, 0, 0, 0, 0, 0, 0, 0, 0, 
[2024-06-13 11:56:34.862981] [0x0000007f818819a0] [LogDataTag] [0x00000af8] [761] 1718294193138008, 1.72418, 0, 0, 0, 0, 0, 0, 0, 0, 0, 0, 0, 0, 1.8445e+13, 0.103053, -0.132403, -0.310375, 0.998966, -0.00901114, -0.0171452, -0.0411351, 0.000274274, -0.000519867, -0.000467279, 0.000886916, 0.00100511, 0.0105012, -0.016604, -0.0350034, -0.0820183, 0, 0, 0, 0, 0, 0, 0, 0, 0, 0, 0, 0, 0, 0, 0, 0, 0, 0, 0, 0, 0, 0, 0, 0, 0, 0, 0, 0, 0, 0, 0, 0, 0, 0, 0, 0, 0, 0, 0, 0, 0, 0, 0, 0, 0, 0, 0, 0, 0, 0, 0, 0, 0, 0, 0, 0, 0, 0, 0, 0, 0, 0, 0, 0, 0, 0, 0, 0, 0, 0, 0, 
[2024-06-13 11:56:34.872556] [0x0000007f820829a0] [LogDataTag] [0x00000af8] [766] 1718294193138008, 1.73409, 0, 0, 0, 0, 0, 0, 0, 0, 0, 0, 0, 0, 1.8445e+13, 0.103048, -0.132394, -0.310372, 0.998969, -0.00900862, -0.0171421, -0.041054, 0.000336046, -0.000152829, -0.000388213, -0.000752004, 0.00147371, 0.0169819, -0.0166021, -0.0349958, -0.0818559, 0, 0, 0, 0, 0, 0, 0, 0, 0, 0, 0, 0, 0, 0, 0, 0, 0, 0, 0, 0, 0, 0, 0, 0, 0, 0, 0, 0, 0, 0, 0, 0, 0, 0, 0, 0, 0, 0, 0, 0, 0, 0, 0, 0, 0, 0, 0, 0, 0, 0, 0, 0, 0, 0, 0, 0, 0, 0, 0, 0, 0, 0, 0, 0, 0, 0, 0, 0, 0, 0, 0, 
[2024-06-13 11:56:34.882559] [0x0000007f887dd010] [LogDataTag] [0x00000af8] [771] 1718294193138008, 1.74414, 0, 0, 0, 0, 0, 0, 0, 0, 0, 0, 0, 0, 1.8445e+13, 0.103043, -0.132389, -0.310373, 0.998972, -0.00901121, -0.0171289, -0.0409903, 0.000182578, -0.00104479, -0.000701844, -0.000605151, 0.00228817, 0.010382, -0.0166106, -0.0349684, -0.0817284, 0, 0, 0, 0, 0, 0, 0, 0, 0, 0, 0, 0, 0, 0, 0, 0, 0, 0, 0, 0, 0, 0, 0, 0, 0, 0, 0, 0, 0, 0, 0, 0, 0, 0, 0, 0, 0, 0, 0, 0, 0, 0, 0, 0, 0, 0, 0, 0, 0, 0, 0, 0, 0, 0, 0, 0, 0, 0, 0, 0, 0, 0, 0, 0, 0, 0, 0, 0, 0, 0, 0, 
[2024-06-13 11:56:34.892614] [0x0000007f810809a0] [LogDataTag] [0x00000af8] [775] 1718294193138008, 1.75413, 0, 0, 0, 0, 0, 0, 0, 0, 0, 0, 0, 0, 1.8445e+13, 0.103036, -0.132394, -0.310373, 0.998972, -0.00900713, -0.017125, -0.0409948, 0.000122327, -0.00223502, -0.000690785, 0.00031699, 0.000429588, -0.00408174, -0.0166026, -0.0349605, -0.0817376, 0, 0, 0, 0, 0, 0, 0, 0, 0, 0, 0, 0, 0, 0, 0, 0, 0, 0, 0, 0, 0, 0, 0, 0, 0, 0, 0, 0, 0, 0, 0, 0, 0, 0, 0, 0, 0, 0, 0, 0, 0, 0, 0, 0, 0, 0, 0, 0, 0, 0, 0, 0, 0, 0, 0, 0, 0, 0, 0, 0, 0, 0, 0, 0, 0, 0, 0, 0, 0, 0, 0, 
[2024-06-13 11:56:34.902505] [0x0000007f818819a0] [LogDataTag] [0x00000af8] [780] 1718294193138008, 1.76402, 0, 0, 0, 0, 0, 0, 0, 0, 0, 0, 0, 0, 1.8445e+13, 0.103028, -0.13241, -0.310372, 0.998969, -0.00900303, -0.0171242, -0.0410724, -0.000275055, -0.00309685, -0.000147584, 9.52501e-05, -0.0012638, -0.018205, -0.0165917, -0.0349598, -0.0818933, 0, 0, 0, 0, 0, 0, 0, 0, 0, 0, 0, 0, 0, 0, 0, 0, 0, 0, 0, 0, 0, 0, 0, 0, 0, 0, 0, 0, 0, 0, 0, 0, 0, 0, 0, 0, 0, 0, 0, 0, 0, 0, 0, 0, 0, 0, 0, 0, 0, 0, 0, 0, 0, 0, 0, 0, 0, 0, 0, 0, 0, 0, 0, 0, 0, 0, 0, 0, 0, 0, 0, 
[2024-06-13 11:56:34.912746] [0x0000007f887dd010] [LogDataTag] [0x00000af8] [784] 1718294193138008, 1.77414, 0, 0, 0, 0, 0, 0, 0, 0, 0, 0, 0, 0, 1.8445e+13, 0.103019, -0.132425, -0.310368, 0.998965, -0.00901705, -0.0171347, -0.0411651, 5.57379e-06, -0.00228997, -0.000446466, -0.00279971, -0.000489728, -0.0163185, -0.0166157, -0.0349834, -0.0820783, 0, 0, 0, 0, 0, 0, 0, 0, 0, 0, 0, 0, 0, 0, 0, 0, 0, 0, 0, 0, 0, 0, 0, 0, 0, 0, 0, 0, 0, 0, 0, 0, 0, 0, 0, 0, 0, 0, 0, 0, 0, 0, 0, 0, 0, 0, 0, 0, 0, 0, 0, 0, 0, 0, 0, 0, 0, 0, 0, 0, 0, 0, 0, 0, 0, 0, 0, 0, 0, 0, 0, 
[2024-06-13 11:56:34.922682] [0x0000007f810809a0] [LogDataTag] [0x00000af8] [788] 1718294193138008, 1.78416, 0, 0, 0, 0, 0, 0, 0, 0, 0, 0, 0, 0, 1.8445e+13, 0.103011, -0.132428, -0.310365, 0.998964, -0.00901267, -0.0171396, -0.0411886, 8.574e-05, -0.000761805, -0.000397254, -0.000302116, -0.000958989, -0.000280611, -0.0166057, -0.0349933, -0.0821253, 0, 0, 0, 0, 0, 0, 0, 0, 0, 0, 0, 0, 0, 0, 0, 0, 0, 0, 0, 0, 0, 0, 0, 0, 0, 0, 0, 0, 0, 0, 0, 0, 0, 0, 0, 0, 0, 0, 0, 0, 0, 0, 0, 0, 0, 0, 0, 0, 0, 0, 0, 0, 0, 0, 0, 0, 0, 0, 0, 0, 0, 0, 0, 0, 0, 0, 0, 0, 0, 0, 0, 
[2024-06-13 11:56:34.932573] [0x0000007f820829a0] [LogDataTag] [0x00000af8] [793] 1718294193138008, 1.79408, 0, 0, 0, 0, 0, 0, 0, 0, 0, 0, 0, 0, 1.8445e+13, 0.103006, -0.132417, -0.310364, 0.998967, -0.00901316, -0.0171296, -0.0411182, 0.000412935, 0.000490826, -0.000433403, 0.00120901, 0.00166713, 0.0181636, -0.0166099, -0.0349721, -0.0819845, 0, 0, 0, 0, 0, 0, 0, 0, 0, 0, 0, 0, 0, 0, 0, 0, 0, 0, 0, 0, 0, 0, 0, 0, 0, 0, 0, 0, 0, 0, 0, 0, 0, 0, 0, 0, 0, 0, 0, 0, 0, 0, 0, 0, 0, 0, 0, 0, 0, 0, 0, 0, 0, 0, 0, 0, 0, 0, 0, 0, 0, 0, 0, 0, 0, 0, 0, 0, 0, 0, 0, 
[2024-06-13 11:56:34.942602] [0x0000007f818819a0] [LogDataTag] [0x00000af8] [797] 1718294193138008, 1.80412, 0, 0, 0, 0, 0, 0, 0, 0, 0, 0, 0, 0, 1.8445e+13, 0.103003, -0.132401, -0.310363, 0.998971, -0.00900108, -0.0171121, -0.0410201, 0.000393672, 0.000298466, -0.000696535, 0.00217937, 0.00425915, 0.0191517, -0.0165906, -0.0349345, -0.0817888, 0, 0, 0, 0, 0, 0, 0, 0, 0, 0, 0, 0, 0, 0, 0, 0, 0, 0, 0, 0, 0, 0, 0, 0, 0, 0, 0, 0, 0, 0, 0, 0, 0, 0, 0, 0, 0, 0, 0, 0, 0, 0, 0, 0, 0, 0, 0, 0, 0, 0, 0, 0, 0, 0, 0, 0, 0, 0, 0, 0, 0, 0, 0, 0, 0, 0, 0, 0, 0, 0, 0, 
[2024-06-13 11:56:34.952660] [0x0000007f818819a0] [LogDataTag] [0x00000af8] [802] 1718294193138008, 1.81418, 0, 0, 0, 0, 0, 0, 0, 0, 0, 0, 0, 0, 1.8445e+13, 0.102999, -0.132391, -0.310364, 0.998974, -0.00898942, -0.0170943, -0.0409561, 0.000169969, -0.00107624, -0.000272028, 0.00498114, 0.00278052, 0.00909643, -0.016571, -0.0348969, -0.0816612, 0, 0, 0, 0, 0, 0, 0, 0, 0, 0, 0, 0, 0, 0, 0, 0, 0, 0, 0, 0, 0, 0, 0, 0, 0, 0, 0, 0, 0, 0, 0, 0, 0, 0, 0, 0, 0, 0, 0, 0, 0, 0, 0, 0, 0, 0, 0, 0, 0, 0, 0, 0, 0, 0, 0, 0, 0, 0, 0, 0, 0, 0, 0, 0, 0, 0, 0, 0, 0, 0, 0, 
[2024-06-13 11:56:34.962974] [0x0000007f820829a0] [LogDataTag] [0x00000af8] [807] 1718294193138008, 1.82413, 0, 0, 0, 0, 0, 0, 0, 0, 0, 0, 0, 0, 1.8445e+13, 0.102992, -0.132398, -0.310359, 0.998972, -0.00899703, -0.0170945, -0.0409997, -8.30282e-06, -0.00268695, -0.000198099, -0.00510423, 0.000158266, -0.0139543, -0.0165847, -0.0348987, -0.0817483, 0, 0, 0, 0, 0, 0, 0, 0, 0, 0, 0, 0, 0, 0, 0, 0, 0, 0, 0, 0, 0, 0, 0, 0, 0, 0, 0, 0, 0, 0, 0, 0, 0, 0, 0, 0, 0, 0, 0, 0, 0, 0, 0, 0, 0, 0, 0, 0, 0, 0, 0, 0, 0, 0, 0, 0, 0, 0, 0, 0, 0, 0, 0, 0, 0, 0, 0, 0, 0, 0, 0, 
[2024-06-13 11:56:34.972470] [0x0000007f810809a0] [LogDataTag] [0x00000af8] [810] 1718294193138008, 1.834, 0, 0, 0, 0, 0, 0, 0, 0, 0, 0, 0, 0, 1.8445e+13, 0.102984, -0.132413, -0.310353, 0.998968, -0.00899979, -0.0171054, -0.0411, -0.000158717, -0.00283298, 4.75252e-05, 0.00185235, -0.00323287, -0.0205723, -0.0165858, -0.0349223, -0.0819488, 0, 0, 0, 0, 0, 0, 0, 0, 0, 0, 0, 0, 0, 0, 0, 0, 0, 0, 0, 0, 0, 0, 0, 0, 0, 0, 0, 0, 0, 0, 0, 0, 0, 0, 0, 0, 0, 0, 0, 0, 0, 0, 0, 0, 0, 0, 0, 0, 0, 0, 0, 0, 0, 0, 0, 0, 0, 0, 0, 0, 0, 0, 0, 0, 0, 0, 0, 0, 0, 0, 0, 
[2024-06-13 11:56:34.982951] [0x0000007f887dd010] [LogDataTag] [0x00000af8] [815] 1718294193138008, 1.84412, 0, 0, 0, 0, 0, 0, 0, 0, 0, 0, 0, 0, 1.8445e+13, 0.102976, -0.132425, -0.310347, 0.998964, -0.00900754, -0.0171101, -0.0411845, 5.23422e-06, -0.00186297, -0.000259502, -0.00430192, -0.000321436, -0.0139893, -0.016598, -0.0349337, -0.0821178, 0, 0, 0, 0, 0, 0, 0, 0, 0, 0, 0, 0, 0, 0, 0, 0, 0, 0, 0, 0, 0, 0, 0, 0, 0, 0, 0, 0, 0, 0, 0, 0, 0, 0, 0, 0, 0, 0, 0, 0, 0, 0, 0, 0, 0, 0, 0, 0, 0, 0, 0, 0, 0, 0, 0, 0, 0, 0, 0, 0, 0, 0, 0, 0, 0, 0, 0, 0, 0, 0, 0, 
[2024-06-13 11:56:34.992716] [0x0000007f887dd010] [LogDataTag] [0x00000af8] [820] 1718294193138008, 1.85424, 0, 0, 0, 0, 0, 0, 0, 0, 0, 0, 0, 0, 1.8445e+13, 0.10297, -0.132423, -0.310345, 0.998965, -0.00899905, -0.0171086, -0.0411851, 0.000115044, -0.000439789, -0.000616867, 0.00414676, 5.1564e-05, 0.00416343, -0.0165811, -0.0349302, -0.0821193, 0, 0, 0, 0, 0, 0, 0, 0, 0, 0, 0, 0, 0, 0, 0, 0, 0, 0, 0, 0, 0, 0, 0, 0, 0, 0, 0, 0, 0, 0, 0, 0, 0, 0, 0, 0, 0, 0, 0, 0, 0, 0, 0, 0, 0, 0, 0, 0, 0, 0, 0, 0, 0, 0, 0, 0, 0, 0, 0, 0, 0, 0, 0, 0, 0, 0, 0, 0, 0, 0, 0, 
[2024-06-13 11:56:35.002678] [0x0000007f810809a0] [LogDataTag] [0x00000af8] [824] 1718294193138008, 1.86419, 0, 0, 0, 0, 0, 0, 0, 0, 0, 0, 0, 0, 1.8445e+13, 0.102965, -0.132411, -0.310346, 0.998968, -0.00899872, -0.0170942, -0.041108, 0.000199707, 0.000228598, -0.000905826, -0.00109804, 0.00330309, 0.0180344, -0.0165843, -0.0349001, -0.0819651, 0, 0, 0, 0, 0, 0, 0, 0, 0, 0, 0, 0, 0, 0, 0, 0, 0, 0, 0, 0, 0, 0, 0, 0, 0, 0, 0, 0, 0, 0, 0, 0, 0, 0, 0, 0, 0, 0, 0, 0, 0, 0, 0, 0, 0, 0, 0, 0, 0, 0, 0, 0, 0, 0, 0, 0, 0, 0, 0, 0, 0, 0, 0, 0, 0, 0, 0, 0, 0, 0, 0, 
[2024-06-13 11:56:35.012576] [0x0000007f810809a0] [LogDataTag] [0x00000af8] [829] 1718294193138008, 1.87413, 0, 0, 0, 0, 0, 0, 0, 0, 0, 0, 0, 0, 1.8445e+13, 0.102965, -0.132411, -0.310346, 0.998968, -0.00899872, -0.0170942, -0.041108, 0.000199707, 0.000228598, -0.000905826, -0.00109804, 0.00330309, 0.0180344, -0.0165843, -0.0349001, -0.0819651, 0, 0, 0, 0, 0, 0, 0, 0, 0, 0, 0, 0, 0, 0, 0, 0, 0, 0, 0, 0, 0, 0, 0, 0, 0, 0, 0, 0, 0, 0, 0, 0, 0, 0, 0, 0, 0, 0, 0, 0, 0, 0, 0, 0, 0, 0, 0, 0, 0, 0, 0, 0, 0, 0, 0, 0, 0, 0, 0, 0, 0, 0, 0, 0, 0, 0, 0, 0, 0, 0, 0, 
[2024-06-13 11:56:35.022758] [0x0000007f818819a0] [LogDataTag] [0x00000af8] [833] 1718294193138008, 1.8842, 0, 0, 0, 0, 0, 0, 0, 0, 0, 0, 0, 0, 1.8445e+13, 0.102954, -0.132391, -0.310345, 0.998973, -0.00899927, -0.0170842, -0.0409913, -8.1337e-05, -0.00142373, -0.000244904, -0.00273562, -0.000119399, 0.00103548, -0.0165903, -0.0348781, -0.0817316, 0, 0, 0, 0, 0, 0, 0, 0, 0, 0, 0, 0, 0, 0, 0, 0, 0, 0, 0, 0, 0, 0, 0, 0, 0, 0, 0, 0, 0, 0, 0, 0, 0, 0, 0, 0, 0, 0, 0, 0, 0, 0, 0, 0, 0, 0, 0, 0, 0, 0, 0, 0, 0, 0, 0, 0, 0, 0, 0, 0, 0, 0, 0, 0, 0, 0, 0, 0, 0, 0, 0, 
[2024-06-13 11:56:35.032780] [0x0000007f818819a0] [LogDataTag] [0x00000af8] [838] 1718294193138008, 1.89418, 0, 0, 0, 0, 0, 0, 0, 0, 0, 0, 0, 0, 1.8445e+13, 0.102954, -0.132391, -0.310345, 0.998973, -0.00899927, -0.0170842, -0.0409913, -8.1337e-05, -0.00142373, -0.000244904, -0.00273562, -0.000119399, 0.00103548, -0.0165903, -0.0348781, -0.0817316, 0, 0, 0, 0, 0, 0, 0, 0, 0, 0, 0, 0, 0, 0, 0, 0, 0, 0, 0, 0, 0, 0, 0, 0, 0, 0, 0, 0, 0, 0, 0, 0, 0, 0, 0, 0, 0, 0, 0, 0, 0, 0, 0, 0, 0, 0, 0, 0, 0, 0, 0, 0, 0, 0, 0, 0, 0, 0, 0, 0, 0, 0, 0, 0, 0, 0, 0, 0, 0, 0, 0, 
[2024-06-13 11:56:35.042711] [0x0000007f887dd010] [LogDataTag] [0x00000af8] [843] 1718294193138008, 1.90417, 0, 0, 0, 0, 0, 0, 0, 0, 0, 0, 0, 0, 1.8445e+13, 0.102947, -0.132397, -0.310341, 0.998971, -0.00899013, -0.0170893, -0.0410382, -0.000157959, -0.00242016, -0.000350834, 0.000764355, -0.000511537, -0.01174, -0.01657, -0.0348883, -0.0818258, 0, 0, 0, 0, 0, 0, 0, 0, 0, 0, 0, 0, 0, 0, 0, 0, 0, 0, 0, 0, 0, 0, 0, 0, 0, 0, 0, 0, 0, 0, 0, 0, 0, 0, 0, 0, 0, 0, 0, 0, 0, 0, 0, 0, 0, 0, 0, 0, 0, 0, 0, 0, 0, 0, 0, 0, 0, 0, 0, 0, 0, 0, 0, 0, 0, 0, 0, 0, 0, 0, 0, 
[2024-06-13 11:56:35.052637] [0x0000007f818819a0] [LogDataTag] [0x00000af8] [847] 1718294193138008, 1.91412, 0, 0, 0, 0, 0, 0, 0, 0, 0, 0, 0, 0, 1.8445e+13, 0.102933, -0.132417, -0.310332, 0.998965, -0.00900538, -0.0171019, -0.041183, -5.90639e-05, -0.00163572, -0.00043625, -0.000671466, -0.000461827, -0.00867577, -0.0165944, -0.0349172, -0.082115, 0, 0, 0, 0, 0, 0, 0, 0, 0, 0, 0, 0, 0, 0, 0, 0, 0, 0, 0, 0, 0, 0, 0, 0, 0, 0, 0, 0, 0, 0, 0, 0, 0, 0, 0, 0, 0, 0, 0, 0, 0, 0, 0, 0, 0, 0, 0, 0, 0, 0, 0, 0, 0, 0, 0, 0, 0, 0, 0, 0, 0, 0, 0, 0, 0, 0, 0, 0, 0, 0, 0, 
[2024-06-13 11:56:35.062666] [0x0000007f818819a0] [LogDataTag] [0x00000af8] [852] 1718294193138008, 1.92414, 0, 0, 0, 0, 0, 0, 0, 0, 0, 0, 0, 0, 1.8445e+13, 0.102933, -0.132417, -0.310332, 0.998965, -0.00900538, -0.0171019, -0.041183, -5.90639e-05, -0.00163572, -0.00043625, -0.000671466, -0.000461827, -0.00867577, -0.0165944, -0.0349172, -0.082115, 0, 0, 0, 0, 0, 0, 0, 0, 0, 0, 0, 0, 0, 0, 0, 0, 0, 0, 0, 0, 0, 0, 0, 0, 0, 0, 0, 0, 0, 0, 0, 0, 0, 0, 0, 0, 0, 0, 0, 0, 0, 0, 0, 0, 0, 0, 0, 0, 0, 0, 0, 0, 0, 0, 0, 0, 0, 0, 0, 0, 0, 0, 0, 0, 0, 0, 0, 0, 0, 0, 0, 
[2024-06-13 11:56:35.072955] [0x0000007f810809a0] [LogDataTag] [0x00000af8] [857] 1718294193138008, 1.93419, 0, 0, 0, 0, 0, 0, 0, 0, 0, 0, 0, 0, 1.8445e+13, 0.102927, -0.132413, -0.310328, 0.998965, -0.00900809, -0.0170996, -0.0411726, -8.32818e-06, -0.000342827, -0.000106661, -3.79103e-05, -0.00017528, 0.00598108, -0.0166003, -0.0349127, -0.082094, 0, 0, 0, 0, 0, 0, 0, 0, 0, 0, 0, 0, 0, 0, 0, 0, 0, 0, 0, 0, 0, 0, 0, 0, 0, 0, 0, 0, 0, 0, 0, 0, 0, 0, 0, 0, 0, 0, 0, 0, 0, 0, 0, 0, 0, 0, 0, 0, 0, 0, 0, 0, 0, 0, 0, 0, 0, 0, 0, 0, 0, 0, 0, 0, 0, 0, 0, 0, 0, 0, 0, 
[2024-06-13 11:56:35.082681] [0x0000007f818819a0] [LogDataTag] [0x00000af8] [861] 1718294193138008, 1.94413, 0, 0, 0, 0, 0, 0, 0, 0, 0, 0, 0, 0, 1.8445e+13, 0.102918, -0.132388, -0.310319, 0.998971, -0.00899441, -0.0170929, -0.0410433, -9.71488e-05, -0.000456205, -0.000204551, 0.00361015, 0.000361262, 0.0112301, -0.0165781, -0.034896, -0.0818358, 0, 0, 0, 0, 0, 0, 0, 0, 0, 0, 0, 0, 0, 0, 0, 0, 0, 0, 0, 0, 0, 0, 0, 0, 0, 0, 0, 0, 0, 0, 0, 0, 0, 0, 0, 0, 0, 0, 0, 0, 0, 0, 0, 0, 0, 0, 0, 0, 0, 0, 0, 0, 0, 0, 0, 0, 0, 0, 0, 0, 0, 0, 0, 0, 0, 0, 0, 0, 0, 0, 0, 
[2024-06-13 11:56:35.092662] [0x0000007f818819a0] [LogDataTag] [0x00000af8] [866] 1718294193138008, 1.95419, 0, 0, 0, 0, 0, 0, 0, 0, 0, 0, 0, 0, 1.8445e+13, 0.102918, -0.132388, -0.310319, 0.998971, -0.00899441, -0.0170929, -0.0410433, -9.71488e-05, -0.000456205, -0.000204551, 0.00361015, 0.000361262, 0.0112301, -0.0165781, -0.034896, -0.0818358, 0, 0, 0, 0, 0, 0, 0, 0, 0, 0, 0, 0, 0, 0, 0, 0, 0, 0, 0, 0, 0, 0, 0, 0, 0, 0, 0, 0, 0, 0, 0, 0, 0, 0, 0, 0, 0, 0, 0, 0, 0, 0, 0, 0, 0, 0, 0, 0, 0, 0, 0, 0, 0, 0, 0, 0, 0, 0, 0, 0, 0, 0, 0, 0, 0, 0, 0, 0, 0, 0, 0, 
[2024-06-13 11:56:35.102589] [0x0000007f820829a0] [LogDataTag] [0x00000af8] [870] 1718294193138008, 1.96413, 0, 0, 0, 0, 0, 0, 0, 0, 0, 0, 0, 0, 1.8445e+13, 0.102904, -0.132392, -0.31031, 0.998969, -0.00899533, -0.0170955, -0.0410779, -0.000366166, -0.0024308, -0.00013363, 0.00103838, -0.00134669, -0.0106166, -0.0165785, -0.0349019, -0.0819049, 0, 0, 0, 0, 0, 0, 0, 0, 0, 0, 0, 0, 0, 0, 0, 0, 0, 0, 0, 0, 0, 0, 0, 0, 0, 0, 0, 0, 0, 0, 0, 0, 0, 0, 0, 0, 0, 0, 0, 0, 0, 0, 0, 0, 0, 0, 0, 0, 0, 0, 0, 0, 0, 0, 0, 0, 0, 0, 0, 0, 0, 0, 0, 0, 0, 0, 0, 0, 0, 0, 0, 
[2024-06-13 11:56:35.112604] [0x0000007f820829a0] [LogDataTag] [0x00000af8] [875] 1718294193138008, 1.97415, 0, 0, 0, 0, 0, 0, 0, 0, 0, 0, 0, 0, 1.8445e+13, 0.102904, -0.132392, -0.31031, 0.998969, -0.00899533, -0.0170955, -0.0410779, -0.000366166, -0.0024308, -0.00013363, 0.00103838, -0.00134669, -0.0106166, -0.0165785, -0.0349019, -0.0819049, 0, 0, 0, 0, 0, 0, 0, 0, 0, 0, 0, 0, 0, 0, 0, 0, 0, 0, 0, 0, 0, 0, 0, 0, 0, 0, 0, 0, 0, 0, 0, 0, 0, 0, 0, 0, 0, 0, 0, 0, 0, 0, 0, 0, 0, 0, 0, 0, 0, 0, 0, 0, 0, 0, 0, 0, 0, 0, 0, 0, 0, 0, 0, 0, 0, 0, 0, 0, 0, 0, 0, 
[2024-06-13 11:56:35.122590] [0x0000007f887dd010] [LogDataTag] [0x00000af8] [880] 1718294193138008, 1.98414, 0, 0, 0, 0, 0, 0, 0, 0, 0, 0, 0, 0, 1.8445e+13, 0.102896, -0.132401, -0.310305, 0.998966, -0.00900574, -0.0171011, -0.0411467, -0.000427283, -0.0021463, -0.000119599, -0.00268256, -0.0014547, -0.0126673, -0.0165964, -0.034915, -0.0820423, 0, 0, 0, 0, 0, 0, 0, 0, 0, 0, 0, 0, 0, 0, 0, 0, 0, 0, 0, 0, 0, 0, 0, 0, 0, 0, 0, 0, 0, 0, 0, 0, 0, 0, 0, 0, 0, 0, 0, 0, 0, 0, 0, 0, 0, 0, 0, 0, 0, 0, 0, 0, 0, 0, 0, 0, 0, 0, 0, 0, 0, 0, 0, 0, 0, 0, 0, 0, 0, 0, 0, 
[2024-06-13 11:56:35.132603] [0x0000007f820829a0] [LogDataTag] [0x00000af8] [884] 1718294193138008, 1.99415, 0, 0, 0, 0, 0, 0, 0, 0, 0, 0, 0, 0, 1.8445e+13, 0.102878, -0.132432, -0.310297, 0.998956, -0.00901224, -0.0171163, -0.041382, -0.000631011, -0.0038851, -0.000450696, -0.0093953, -0.00425579, -0.0377756, -0.0165999, -0.0349498, -0.0825131, 0, 0, 0, 0, 0, 0, 0, 0, 0, 0, 0, 0, 0, 0, 0, 0, 0, 0, 0, 0, 0, 0, 0, 0, 0, 0, 0, 0, 0, 0, 0, 0, 0, 0, 0, 0, 0, 0, 0, 0, 0, 0, 0, 0, 0, 0, 0, 0, 0, 0, 0, 0, 0, 0, 0, 0, 0, 0, 0, 0, 0, 0, 0, 0, 0, 0, 0, 0, 0, 0, 0, 
[2024-06-13 11:56:35.142934] [0x0000007f820829a0] [LogDataTag] [0x00000af8] [889] 1718294193138008, 2.00448, 0, 0, 0, 0, 0, 0, 0, 0, 0, 0, 0, 0, 1.8445e+13, 0.102878, -0.132432, -0.310297, 0.998956, -0.00901224, -0.0171163, -0.041382, -0.000631011, -0.0038851, -0.000450696, -0.0093953, -0.00425579, -0.0377756, -0.0165999, -0.0349498, -0.0825131, 0, 0, 0, 0, 0, 0, 0, 0, 0, 0, 0, 0, 0, 0, 0, 0, 0, 0, 0, 0, 0, 0, 0, 0, 0, 0, 0, 0, 0, 0, 0, 0, 0, 0, 0, 0, 0, 0, 0, 0, 0, 0, 0, 0, 0, 0, 0, 0, 0, 0, 0, 0, 0, 0, 0, 0, 0, 0, 0, 0, 0, 0, 0, 0, 0, 0, 0, 0, 0, 0, 0, 
[2024-06-13 11:56:35.152564] [0x0000007f810809a0] [LogDataTag] [0x00000af8] [893] 1718294193138008, 2.01411, 0, 0, 0, 0, 0, 0, 0, 0, 0, 0, 0, 0, 1.8445e+13, 0.102866, -0.132386, -0.310291, 0.998966, -0.00902623, -0.0171124, -0.0411352, 0.000530472, 0.00626157, -0.000715798, 0.000326647, 0.00360389, 0.0796269, -0.0166369, -0.0349392, -0.0820184, 0, 0, 0, 0, 0, 0, 0, 0, 0, 0, 0, 0, 0, 0, 0, 0, 0, 0, 0, 0, 0, 0, 0, 0, 0, 0, 0, 0, 0, 0, 0, 0, 0, 0, 0, 0, 0, 0, 0, 0, 0, 0, 0, 0, 0, 0, 0, 0, 0, 0, 0, 0, 0, 0, 0, 0, 0, 0, 0, 0, 0, 0, 0, 0, 0, 0, 0, 0, 0, 0, 0, 
[2024-06-13 11:56:35.162576] [0x0000007f810809a0] [LogDataTag] [0x00000af8] [898] 1718294193138008, 2.02412, 0, 0, 0, 0, 0, 0, 0, 0, 0, 0, 0, 0, 1.8445e+13, 0.102866, -0.132386, -0.310291, 0.998966, -0.00902623, -0.0171124, -0.0411352, 0.000530472, 0.00626157, -0.000715798, 0.000326647, 0.00360389, 0.0796269, -0.0166369, -0.0349392, -0.0820184, 0, 0, 0, 0, 0, 0, 0, 0, 0, 0, 0, 0, 0, 0, 0, 0, 0, 0, 0, 0, 0, 0, 0, 0, 0, 0, 0, 0, 0, 0, 0, 0, 0, 0, 0, 0, 0, 0, 0, 0, 0, 0, 0, 0, 0, 0, 0, 0, 0, 0, 0, 0, 0, 0, 0, 0, 0, 0, 0, 0, 0, 0, 0, 0, 0, 0, 0, 0, 0, 0, 0, 
[2024-06-13 11:56:35.172576] [0x0000007f818819a0] [LogDataTag] [0x00000af8] [903] 1718294193138008, 2.03412, 0, 0, 0, 0, 0, 0, 0, 0, 0, 0, 0, 0, 1.8445e+13, 0.102867, -0.132313, -0.310293, 0.998984, -0.00899056, -0.0171014, -0.0407083, 0.000272117, 0.00453669, -0.00119548, 0.0169605, 0.00359484, 0.0765563, -0.0165814, -0.0349072, -0.0811649, 0, 0, 0, 0, 0, 0, 0, 0, 0, 0, 0, 0, 0, 0, 0, 0, 0, 0, 0, 0, 0, 0, 0, 0, 0, 0, 0, 0, 0, 0, 0, 0, 0, 0, 0, 0, 0, 0, 0, 0, 0, 0, 0, 0, 0, 0, 0, 0, 0, 0, 0, 0, 0, 0, 0, 0, 0, 0, 0, 0, 0, 0, 0, 0, 0, 0, 0, 0, 0, 0, 0, 
[2024-06-13 11:56:35.182589] [0x0000007f810809a0] [LogDataTag] [0x00000af8] [907] 1718294193138008, 2.04412, 0, 0, 0, 0, 0, 0, 0, 0, 0, 0, 0, 0, 1.8445e+13, 0.102852, -0.132321, -0.310295, 0.99898, -0.0089529, -0.0170518, -0.0408363, -0.00114822, -0.00826425, -0.000325135, -0.00280248, 0.000744186, -0.0718628, -0.0165056, -0.034807, -0.0814231, 0, 0, 0, 0, 0, 0, 0, 0, 0, 0, 0, 0, 0, 0, 0, 0, 0, 0, 0, 0, 0, 0, 0, 0, 0, 0, 0, 0, 0, 0, 0, 0, 0, 0, 0, 0, 0, 0, 0, 0, 0, 0, 0, 0, 0, 0, 0, 0, 0, 0, 0, 0, 0, 0, 0, 0, 0, 0, 0, 0, 0, 0, 0, 0, 0, 0, 0, 0, 0, 0, 0, 
[2024-06-13 11:56:35.192586] [0x0000007f810809a0] [LogDataTag] [0x00000af8] [912] 1718294193138008, 2.05413, 0, 0, 0, 0, 0, 0, 0, 0, 0, 0, 0, 0, 1.8445e+13, 0.102852, -0.132321, -0.310295, 0.99898, -0.0089529, -0.0170518, -0.0408363, -0.00114822, -0.00826425, -0.000325135, -0.00280248, 0.000744186, -0.0718628, -0.0165056, -0.034807, -0.0814231, 0, 0, 0, 0, 0, 0, 0, 0, 0, 0, 0, 0, 0, 0, 0, 0, 0, 0, 0, 0, 0, 0, 0, 0, 0, 0, 0, 0, 0, 0, 0, 0, 0, 0, 0, 0, 0, 0, 0, 0, 0, 0, 0, 0, 0, 0, 0, 0, 0, 0, 0, 0, 0, 0, 0, 0, 0, 0, 0, 0, 0, 0, 0, 0, 0, 0, 0, 0, 0, 0, 0, 
[2024-06-13 11:56:35.202607] [0x0000007f887dd010] [LogDataTag] [0x00000af8] [917] 1718294193138008, 2.06411, 0, 0, 0, 0, 0, 0, 0, 0, 0, 0, 0, 0, 1.8445e+13, 0.102819, -0.132433, -0.31026, 0.998949, -0.00905928, -0.0171545, -0.041541, -0.00113506, -0.00206123, 0.00139466, -0.00317445, -0.0110192, -0.0328364, -0.0166853, -0.0350328, -0.0828293, 0, 0, 0, 0, 0, 0, 0, 0, 0, 0, 0, 0, 0, 0, 0, 0, 0, 0, 0, 0, 0, 0, 0, 0, 0, 0, 0, 0, 0, 0, 0, 0, 0, 0, 0, 0, 0, 0, 0, 0, 0, 0, 0, 0, 0, 0, 0, 0, 0, 0, 0, 0, 0, 0, 0, 0, 0, 0, 0, 0, 0, 0, 0, 0, 0, 0, 0, 0, 0, 0, 0, 
[2024-06-13 11:56:35.212578] [0x0000007f887dd010] [LogDataTag] [0x00000af8] [922] 1718294193138008, 2.07414, 0, 0, 0, 0, 0, 0, 0, 0, 0, 0, 0, 0, 1.8445e+13, 0.102819, -0.132433, -0.31026, 0.998949, -0.00905928, -0.0171545, -0.041541, -0.00113506, -0.00206123, 0.00139466, -0.00317445, -0.0110192, -0.0328364, -0.0166853, -0.0350328, -0.0828293, 0, 0, 0, 0, 0, 0, 0, 0, 0, 0, 0, 0, 0, 0, 0, 0, 0, 0, 0, 0, 0, 0, 0, 0, 0, 0, 0, 0, 0, 0, 0, 0, 0, 0, 0, 0, 0, 0, 0, 0, 0, 0, 0, 0, 0, 0, 0, 0, 0, 0, 0, 0, 0, 0, 0, 0, 0, 0, 0, 0, 0, 0, 0, 0, 0, 0, 0, 0, 0, 0, 0, 
[2024-06-13 11:56:35.222591] [0x0000007f818819a0] [LogDataTag] [0x00000af8] [927] 1718294193138008, 2.08416, 0, 0, 0, 0, 0, 0, 0, 0, 0, 0, 0, 0, 1.8445e+13, 0.102804, -0.132353, -0.310255, 0.998968, -0.0089722, -0.0171239, -0.0411037, -6.28104e-05, 0.00411322, -0.00276064, 0.0127311, 0.0162406, 0.0702969, -0.016529, -0.0349571, -0.0819569, 0, 0, 0, 0, 0, 0, 0, 0, 0, 0, 0, 0, 0, 0, 0, 0, 0, 0, 0, 0, 0, 0, 0, 0, 0, 0, 0, 0, 0, 0, 0, 0, 0, 0, 0, 0, 0, 0, 0, 0, 0, 0, 0, 0, 0, 0, 0, 0, 0, 0, 0, 0, 0, 0, 0, 0, 0, 0, 0, 0, 0, 0, 0, 0, 0, 0, 0, 0, 0, 0, 0, 
[2024-06-13 11:56:35.232634] [0x0000007f818819a0] [LogDataTag] [0x00000af8] [931] 1718294193138008, 2.09418, 0, 0, 0, 0, 0, 0, 0, 0, 0, 0, 0, 0, 1.8445e+13, 0.102804, -0.132353, -0.310255, 0.998968, -0.0089722, -0.0171239, -0.0411037, -6.28104e-05, 0.00411322, -0.00276064, 0.0127311, 0.0162406, 0.0702969, -0.016529, -0.0349571, -0.0819569, 0, 0, 0, 0, 0, 0, 0, 0, 0, 0, 0, 0, 0, 0, 0, 0, 0, 0, 0, 0, 0, 0, 0, 0, 0, 0, 0, 0, 0, 0, 0, 0, 0, 0, 0, 0, 0, 0, 0, 0, 0, 0, 0, 0, 0, 0, 0, 0, 0, 0, 0, 0, 0, 0, 0, 0, 0, 0, 0, 0, 0, 0, 0, 0, 0, 0, 0, 0, 0, 0, 0, 
[2024-06-13 11:56:35.242683] [0x0000007f820829a0] [LogDataTag] [0x00000af8] [935] 1718294193138008, 2.10413, 0, 0, 0, 0, 0, 0, 0, 0, 0, 0, 0, 0, 1.8445e+13, 0.1028, -0.132301, -0.31027, 0.998982, -0.00896061, -0.0170389, -0.0408023, -0.000537768, 0.00229769, -0.000922328, -0.000572301, 0.0105746, 0.0520649, -0.0165233, -0.0347813, -0.0813549, 0, 0, 0, 0, 0, 0, 0, 0, 0, 0, 0, 0, 0, 0, 0, 0, 0, 0, 0, 0, 0, 0, 0, 0, 0, 0, 0, 0, 0, 0, 0, 0, 0, 0, 0, 0, 0, 0, 0, 0, 0, 0, 0, 0, 0, 0, 0, 0, 0, 0, 0, 0, 0, 0, 0, 0, 0, 0, 0, 0, 0, 0, 0, 0, 0, 0, 0, 0, 0, 0, 0, 
