[2024-06-21 10:38:07.285652] [0x0000007faff34010] [LogDataTag] [0x000021f9] [1] Initial timestamp, Current time [s], User-defined position x [m], User-defined position y [m], User-defined position z [m], User-defined velocity x [m/s], User-defined velocity y [m/s], User-defined velocity z [m/s], User-defined acceleration x [m/s^2], User-defined acceleration y [m/s^2], User-defined acceleration z [m/s^2], User-defined yaw [rad], User-defined yaw_dot [rad/s], User-defined yaw_dot_dot [rad/s^2], Odometry time [s], Position x [m], Position y [m], Position z [m], Quaternion q0 [-], Quaternion q1 [-], Quaternion q2 [-], Quaternion q3 [-], Velocity x [m/s], Velocity y [m/s], Velocity z [m/s], Angular velocity x [rad/s], Angular velocity y [rad/s], Angular velocity z [rad/s], Roll [rad], Pitch [rad], Yaw [rad], Algorithm execution time [us], Mu translational raw x [N], Mu translational raw y [N], Mu translational raw z [N], Mu translational x [N], Mu translational y [N], Mu translational z [N], U control input U1 [N], U control input U2 [Nm], U control input U3 [Nm], U control input U4 [Nm], Roll desired [rad], Pitch desired [rad], Roll_dot desired [rad/s], Pitch_dot desired [rad/s], Roll_dot_dot desired [rad/s^2], Pitch_dot_dot desired [rad/s^2], Roll_dot [rad/s], Pitch_dot [rad/s], Yaw_dot [rad/s], Thrust motors QUADCOPTER T1 [N], Thrust motors QUADCOPTER T2 [N], Thrust motors QUADCOPTER T3 [N], Thrust motors QUADCOPTER T4 [N], Thrust motors normalized QUADCOPTER T1 [-], Thrust motors normalized QUADCOPTER T2 [-], Thrust motors normalized QUADCOPTER T3 [-], Thrust motors normalized QUADCOPTER T4 [-], Thrust motors X8COPTER T1 [N], Thrust motors X8COPTER T2 [N], Thrust motors X8COPTER T3 [N], Thrust motors X8COPTER T4 [N], Thrust motors X8COPTER T5 [N], Thrust motors X8COPTER T6 [N], Thrust motors X8COPTER T7 [N], Thrust motors X8COPTER T8 [N], Thrust motors normalized X8COPTER T1 [-], Thrust motors normalized X8COPTER T2 [-], Thrust motors normalized X8COPTER T3 [-], Thrust motors normalized X8COPTER T4 [-], Thrust motors normalized X8COPTER T5 [-], Thrust motors normalized X8COPTER T6 [-], Thrust motors normalized X8COPTER T7 [-], Thrust motors normalized X8COPTER T8 [-], Roll error [rad], Pitch error [rad], Yaw error [rad], Outer loop Proportional term x [-], Outer loop Proportional term y [-], Outer loop Proportional term z [-], Outer loop Integral term x [-], Outer loop Integral term y [-], Outer loop Integral term z [-], Outer loop Derivative term x [-], Outer loop Derivative term y [-], Outer loop Derivative term z [-], Outer loop Dynamic Inversion term x [-], Outer loop Dynamic Inversion term y [-], Outer loop Dynamic Inversion term z [-], Inner loop Proportional term x [-], Inner loop Proportional term y [-], Inner loop Proportional term z [-], Inner loop Integral term x [-], Inner loop Integral term y [-], Inner loop Integral term z [-], Inner loop Derivative term x [-], Inner loop Derivative term y [-], Inner loop Derivative term z [-], Inner loop Dynamic Inversion term x [-], Inner loop Dynamic Inversion term y [-], Inner loop Dynamic Inversion term z [-], 
[2024-06-21 10:38:07.341758] [0x0000007f9bffe9a0] [LogDataTag] [0x000021f9] [4] 1718980687273216, 0.068092, 0, 0, 0, 0, 0, 0, 0, 0, 0, 0, 0, 0, 0, 0, 0, 0, 1, 0, 0, 0, 0, 0, 0, 0, 0, 0, 0, 0, 0, 0, 0, 0, 0, 0, 0, 0, 0, 0, 0, 0, 0, 0, 0, 0, 0, 0, 0, 0, 0, 0, 0, 0, 0, 0, 0, 0, 0, 0, 0, 0, 0, 0, 0, 0, 0, 0, 0, 0, 0, 0, 0, 0, 0, 0, 0, 0, 0, 0, 0, 0, 0, 0, 0, 0, 0, 0, 0, 0, 0, 0, 0, 0, 0, 0, 0, 0, 0, 0, 0, 0, 
[2024-06-21 10:38:07.346513] [0x0000007fa97d99a0] [LogDataTag] [0x000021f9] [6] 1718980687273216, 0.072868, 0, 0, 0, 0, 0, 0, 0, 0, 0, 0, 0, 0, 0, 0, 0, 0, 1, 0, 0, 0, 0, 0, 0, 0, 0, 0, 0, 0, 0, 0, 0, 0, 0, 0, 0, 0, 0, 0, 0, 0, 0, 0, 0, 0, 0, 0, 0, 0, 0, 0, 0, 0, 0, 0, 0, 0, 0, 0, 0, 0, 0, 0, 0, 0, 0, 0, 0, 0, 0, 0, 0, 0, 0, 0, 0, 0, 0, 0, 0, 0, 0, 0, 0, 0, 0, 0, 0, 0, 0, 0, 0, 0, 0, 0, 0, 0, 0, 0, 0, 0, 
[2024-06-21 10:38:07.356499] [0x0000007fa97d99a0] [LogDataTag] [0x000021f9] [11] 1718980687273216, 0.08289, 0, 0, 0, 0, 0, 0, 0, 0, 0, 0, 0, 0, 0, 0, 0, 0, 1, 0, 0, 0, 0, 0, 0, 0, 0, 0, 0, 0, 0, 0, 0, 0, 0, 0, 0, 0, 0, 0, 0, 0, 0, 0, 0, 0, 0, 0, 0, 0, 0, 0, 0, 0, 0, 0, 0, 0, 0, 0, 0, 0, 0, 0, 0, 0, 0, 0, 0, 0, 0, 0, 0, 0, 0, 0, 0, 0, 0, 0, 0, 0, 0, 0, 0, 0, 0, 0, 0, 0, 0, 0, 0, 0, 0, 0, 0, 0, 0, 0, 0, 0, 
[2024-06-21 10:38:07.366483] [0x0000007f9bffe9a0] [LogDataTag] [0x000021f9] [15] 1718980687273216, 0.092852, 0, 0, 0, 0, 0, 0, 0, 0, 0, 0, 0, 0, 0.072038, 0.00971546, -0.282829, -0.297931, 0.999536, -0.00644932, -0.00584623, -0.0292065, -0.00221991, 0.000911602, 0.00113508, 0.00159496, 0.0109517, 0.00795288, -0.0125524, -0.0120641, -0.0583477, 0, 0, 0, 0, 0, 0, 0, 0, 0, 0, 0, 0, 0, 0, 0, 0, 0, 0, 0, 0, 0, 0, 0, 0, 0, 0, 0, 0, 0, 0, 0, 0, 0, 0, 0, 0, 0, 0, 0, 0, 0, 0, 0, 0, 0, 0, 0, 0, 0, 0, 0, 0, 0, 0, 0, 0, 0, 0, 0, 0, 0, 0, 0, 0, 0, 0, 0, 0, 0, 0, 0, 
[2024-06-21 10:38:07.376937] [0x0000007fa8fd89a0] [LogDataTag] [0x000021f9] [20] 1718980687273216, 0.102918, 0, 0, 0, 0, 0, 0, 0, 0, 0, 0, 0, 0, 0.082548, 0.00971169, -0.28284, -0.297912, 0.999535, -0.00644159, -0.00586376, -0.0292143, -0.00230963, 0.000983552, 0.00119137, 0.00188964, -0.00212079, -0.00212195, -0.0125358, -0.0120987, -0.0583632, 0, 0, 0, 0, 0, 0, 0, 0, 0, 0, 0, 0, 0, 0, 0, 0, 0, 0, 0, 0, 0, 0, 0, 0, 0, 0, 0, 0, 0, 0, 0, 0, 0, 0, 0, 0, 0, 0, 0, 0, 0, 0, 0, 0, 0, 0, 0, 0, 0, 0, 0, 0, 0, 0, 0, 0, 0, 0, 0, 0, 0, 0, 0, 0, 0, 0, 0, 0, 0, 0, 0, 
[2024-06-21 10:38:07.386415] [0x0000007faff34010] [LogDataTag] [0x000021f9] [24] 1718980687273216, 0.112776, 0, 0, 0, 0, 0, 0, 0, 0, 0, 0, 0, 0, 0.100459, 0.00969671, -0.282861, -0.297877, 0.999535, -0.00643818, -0.00588269, -0.0292064, -0.00263621, 0.000859149, 0.00119879, -0.00239913, -0.00362418, 0.00674899, -0.012528, -0.0121363, -0.0583472, 0, 0, 0, 0, 0, 0, 0, 0, 0, 0, 0, 0, 0, 0, 0, 0, 0, 0, 0, 0, 0, 0, 0, 0, 0, 0, 0, 0, 0, 0, 0, 0, 0, 0, 0, 0, 0, 0, 0, 0, 0, 0, 0, 0, 0, 0, 0, 0, 0, 0, 0, 0, 0, 0, 0, 0, 0, 0, 0, 0, 0, 0, 0, 0, 0, 0, 0, 0, 0, 0, 0, 
[2024-06-21 10:38:07.396455] [0x0000007faff34010] [LogDataTag] [0x000021f9] [28] 1718980687273216, 0.122835, 0, 0, 0, 0, 0, 0, 0, 0, 0, 0, 0, 0, 0.100459, 0.00969671, -0.282861, -0.297877, 0.999535, -0.00643818, -0.00588269, -0.0292064, -0.00263621, 0.000859149, 0.00119879, -0.00239913, -0.00362418, 0.00674899, -0.012528, -0.0121363, -0.0583472, 0, 0, 0, 0, 0, 0, 0, 0, 0, 0, 0, 0, 0, 0, 0, 0, 0, 0, 0, 0, 0, 0, 0, 0, 0, 0, 0, 0, 0, 0, 0, 0, 0, 0, 0, 0, 0, 0, 0, 0, 0, 0, 0, 0, 0, 0, 0, 0, 0, 0, 0, 0, 0, 0, 0, 0, 0, 0, 0, 0, 0, 0, 0, 0, 0, 0, 0, 0, 0, 0, 0, 
[2024-06-21 10:38:07.406485] [0x0000007fa8fd89a0] [LogDataTag] [0x000021f9] [33] 1718980687273216, 0.132871, 0, 0, 0, 0, 0, 0, 0, 0, 0, 0, 0, 0, 0.127637, 0.00966489, -0.282888, -0.297748, 0.999535, -0.00642253, -0.00588182, -0.0292168, -0.00295487, 0.000897136, 0.00110766, 0.00693741, 0.00907205, 0.00616459, -0.0124966, -0.0121338, -0.0583684, 0, 0, 0, 0, 0, 0, 0, 0, 0, 0, 0, 0, 0, 0, 0, 0, 0, 0, 0, 0, 0, 0, 0, 0, 0, 0, 0, 0, 0, 0, 0, 0, 0, 0, 0, 0, 0, 0, 0, 0, 0, 0, 0, 0, 0, 0, 0, 0, 0, 0, 0, 0, 0, 0, 0, 0, 0, 0, 0, 0, 0, 0, 0, 0, 0, 0, 0, 0, 0, 0, 0, 
[2024-06-21 10:38:07.416491] [0x0000007fa8fd89a0] [LogDataTag] [0x000021f9] [37] 1718980687273216, 0.142868, 0, 0, 0, 0, 0, 0, 0, 0, 0, 0, 0, 0, 0.127637, 0.00966489, -0.282888, -0.297748, 0.999535, -0.00642253, -0.00588182, -0.0292168, -0.00295487, 0.000897136, 0.00110766, 0.00693741, 0.00907205, 0.00616459, -0.0124966, -0.0121338, -0.0583684, 0, 0, 0, 0, 0, 0, 0, 0, 0, 0, 0, 0, 0, 0, 0, 0, 0, 0, 0, 0, 0, 0, 0, 0, 0, 0, 0, 0, 0, 0, 0, 0, 0, 0, 0, 0, 0, 0, 0, 0, 0, 0, 0, 0, 0, 0, 0, 0, 0, 0, 0, 0, 0, 0, 0, 0, 0, 0, 0, 0, 0, 0, 0, 0, 0, 0, 0, 0, 0, 0, 0, 
[2024-06-21 10:38:07.426487] [0x0000007f9bffe9a0] [LogDataTag] [0x000021f9] [41] 1718980687273216, 0.152862, 0, 0, 0, 0, 0, 0, 0, 0, 0, 0, 0, 0, 0.136491, 0.0096504, -0.282895, -0.297727, 0.999534, -0.00643839, -0.00588797, -0.0292395, -0.00300079, 0.00087211, 0.00128876, -0.00366329, -0.00389871, -0.00459295, -0.0125277, -0.0121473, -0.0584135, 0, 0, 0, 0, 0, 0, 0, 0, 0, 0, 0, 0, 0, 0, 0, 0, 0, 0, 0, 0, 0, 0, 0, 0, 0, 0, 0, 0, 0, 0, 0, 0, 0, 0, 0, 0, 0, 0, 0, 0, 0, 0, 0, 0, 0, 0, 0, 0, 0, 0, 0, 0, 0, 0, 0, 0, 0, 0, 0, 0, 0, 0, 0, 0, 0, 0, 0, 0, 0, 0, 0, 
[2024-06-21 10:38:07.436491] [0x0000007faff34010] [LogDataTag] [0x000021f9] [46] 1718980687273216, 0.162865, 0, 0, 0, 0, 0, 0, 0, 0, 0, 0, 0, 0, 0.145468, 0.00963422, -0.282902, -0.297707, 0.999534, -0.00643707, -0.00590199, -0.0292384, -0.00314805, 0.000968396, 0.0013282, -0.000134157, 0.00116551, -0.00390652, -0.0125243, -0.0121752, -0.0584111, 0, 0, 0, 0, 0, 0, 0, 0, 0, 0, 0, 0, 0, 0, 0, 0, 0, 0, 0, 0, 0, 0, 0, 0, 0, 0, 0, 0, 0, 0, 0, 0, 0, 0, 0, 0, 0, 0, 0, 0, 0, 0, 0, 0, 0, 0, 0, 0, 0, 0, 0, 0, 0, 0, 0, 0, 0, 0, 0, 0, 0, 0, 0, 0, 0, 0, 0, 0, 0, 0, 0, 
[2024-06-21 10:38:07.446471] [0x0000007fa97d99a0] [LogDataTag] [0x000021f9] [50] 1718980687273216, 0.172847, 0, 0, 0, 0, 0, 0, 0, 0, 0, 0, 0, 0, 0.154424, 0.00961639, -0.282905, -0.297686, 0.999535, -0.0064141, -0.00590331, -0.0292282, -0.00300543, 0.00155739, 0.00141085, 0.00509476, 0.005256, 0.000645838, -0.0124784, -0.0121764, -0.058391, 0, 0, 0, 0, 0, 0, 0, 0, 0, 0, 0, 0, 0, 0, 0, 0, 0, 0, 0, 0, 0, 0, 0, 0, 0, 0, 0, 0, 0, 0, 0, 0, 0, 0, 0, 0, 0, 0, 0, 0, 0, 0, 0, 0, 0, 0, 0, 0, 0, 0, 0, 0, 0, 0, 0, 0, 0, 0, 0, 0, 0, 0, 0, 0, 0, 0, 0, 0, 0, 0, 0, 
[2024-06-21 10:38:07.456394] [0x0000007fa8fd89a0] [LogDataTag] [0x000021f9] [54] 1718980687273216, 0.182794, 0, 0, 0, 0, 0, 0, 0, 0, 0, 0, 0, 0, 0.163435, 0.00959808, -0.282908, -0.297702, 0.999534, -0.00641473, -0.00591526, -0.0292516, -0.0030932, 0.000808476, 0.00157936, -0.00261127, -0.000549301, -0.0140702, -0.0124787, -0.0122006, -0.0584377, 0, 0, 0, 0, 0, 0, 0, 0, 0, 0, 0, 0, 0, 0, 0, 0, 0, 0, 0, 0, 0, 0, 0, 0, 0, 0, 0, 0, 0, 0, 0, 0, 0, 0, 0, 0, 0, 0, 0, 0, 0, 0, 0, 0, 0, 0, 0, 0, 0, 0, 0, 0, 0, 0, 0, 0, 0, 0, 0, 0, 0, 0, 0, 0, 0, 0, 0, 0, 0, 0, 0, 
[2024-06-21 10:38:07.466465] [0x0000007fa97d99a0] [LogDataTag] [0x000021f9] [59] 1718980687273216, 0.192784, 0, 0, 0, 0, 0, 0, 0, 0, 0, 0, 0, 0, 0.18153, 0.00959483, -0.28292, -0.297731, 0.999532, -0.00642612, -0.00592108, -0.0293322, -0.00303335, 0.00363053, 0.00121877, -0.000841209, 0.00832985, -0.000741902, -0.0125001, -0.0122139, -0.0585987, 0, 0, 0, 0, 0, 0, 0, 0, 0, 0, 0, 0, 0, 0, 0, 0, 0, 0, 0, 0, 0, 0, 0, 0, 0, 0, 0, 0, 0, 0, 0, 0, 0, 0, 0, 0, 0, 0, 0, 0, 0, 0, 0, 0, 0, 0, 0, 0, 0, 0, 0, 0, 0, 0, 0, 0, 0, 0, 0, 0, 0, 0, 0, 0, 0, 0, 0, 0, 0, 0, 0, 
[2024-06-21 10:38:07.476422] [0x0000007fa97d99a0] [LogDataTag] [0x000021f9] [63] 1718980687273216, 0.202824, 0, 0, 0, 0, 0, 0, 0, 0, 0, 0, 0, 0, 0.18153, 0.00959483, -0.28292, -0.297731, 0.999532, -0.00642612, -0.00592108, -0.0293322, -0.00303335, 0.00363053, 0.00121877, -0.000841209, 0.00832985, -0.000741902, -0.0125001, -0.0122139, -0.0585987, 0, 0, 0, 0, 0, 0, 0, 0, 0, 0, 0, 0, 0, 0, 0, 0, 0, 0, 0, 0, 0, 0, 0, 0, 0, 0, 0, 0, 0, 0, 0, 0, 0, 0, 0, 0, 0, 0, 0, 0, 0, 0, 0, 0, 0, 0, 0, 0, 0, 0, 0, 0, 0, 0, 0, 0, 0, 0, 0, 0, 0, 0, 0, 0, 0, 0, 0, 0, 0, 0, 0, 
[2024-06-21 10:38:07.486425] [0x0000007f9bffe9a0] [LogDataTag] [0x000021f9] [67] 1718980687273216, 0.212818, 0, 0, 0, 0, 0, 0, 0, 0, 0, 0, 0, 0, 0.208447, 0.00962221, -0.282867, -0.297768, 0.999542, -0.00639356, -0.00589136, -0.028981, -0.003005, 0.00434336, 0.000976413, 0.00877846, 0.00455043, 0.00891238, -0.012441, -0.0121482, -0.0578967, 0, 0, 0, 0, 0, 0, 0, 0, 0, 0, 0, 0, 0, 0, 0, 0, 0, 0, 0, 0, 0, 0, 0, 0, 0, 0, 0, 0, 0, 0, 0, 0, 0, 0, 0, 0, 0, 0, 0, 0, 0, 0, 0, 0, 0, 0, 0, 0, 0, 0, 0, 0, 0, 0, 0, 0, 0, 0, 0, 0, 0, 0, 0, 0, 0, 0, 0, 0, 0, 0, 0, 
[2024-06-21 10:38:07.496421] [0x0000007f9bffe9a0] [LogDataTag] [0x000021f9] [72] 1718980687273216, 0.222823, 0, 0, 0, 0, 0, 0, 0, 0, 0, 0, 0, 0, 0.208447, 0.00962221, -0.282867, -0.297768, 0.999542, -0.00639356, -0.00589136, -0.028981, -0.003005, 0.00434336, 0.000976413, 0.00877846, 0.00455043, 0.00891238, -0.012441, -0.0121482, -0.0578967, 0, 0, 0, 0, 0, 0, 0, 0, 0, 0, 0, 0, 0, 0, 0, 0, 0, 0, 0, 0, 0, 0, 0, 0, 0, 0, 0, 0, 0, 0, 0, 0, 0, 0, 0, 0, 0, 0, 0, 0, 0, 0, 0, 0, 0, 0, 0, 0, 0, 0, 0, 0, 0, 0, 0, 0, 0, 0, 0, 0, 0, 0, 0, 0, 0, 0, 0, 0, 0, 0, 0, 
[2024-06-21 10:38:07.506416] [0x0000007f9bffe9a0] [LogDataTag] [0x000021f9] [76] 1718980687273216, 0.232819, 0, 0, 0, 0, 0, 0, 0, 0, 0, 0, 0, 0, 0.208447, 0.00962221, -0.282867, -0.297768, 0.999542, -0.00639356, -0.00589136, -0.028981, -0.003005, 0.00434336, 0.000976413, 0.00877846, 0.00455043, 0.00891238, -0.012441, -0.0121482, -0.0578967, 0, 0, 0, 0, 0, 0, 0, 0, 0, 0, 0, 0, 0, 0, 0, 0, 0, 0, 0, 0, 0, 0, 0, 0, 0, 0, 0, 0, 0, 0, 0, 0, 0, 0, 0, 0, 0, 0, 0, 0, 0, 0, 0, 0, 0, 0, 0, 0, 0, 0, 0, 0, 0, 0, 0, 0, 0, 0, 0, 0, 0, 0, 0, 0, 0, 0, 0, 0, 0, 0, 0, 
[2024-06-21 10:38:07.516484] [0x0000007fa97d99a0] [LogDataTag] [0x000021f9] [81] 1718980687273216, 0.242882, 0, 0, 0, 0, 0, 0, 0, 0, 0, 0, 0, 0, 0.217456, 0.00962767, -0.282865, -0.297785, 0.999539, -0.00638663, -0.00591116, -0.0290728, -0.00294165, 0.00234243, 0.00174918, 0.00135733, 0.000429934, -0.0251142, -0.0124249, -0.0121885, -0.0580802, 0, 0, 0, 0, 0, 0, 0, 0, 0, 0, 0, 0, 0, 0, 0, 0, 0, 0, 0, 0, 0, 0, 0, 0, 0, 0, 0, 0, 0, 0, 0, 0, 0, 0, 0, 0, 0, 0, 0, 0, 0, 0, 0, 0, 0, 0, 0, 0, 0, 0, 0, 0, 0, 0, 0, 0, 0, 0, 0, 0, 0, 0, 0, 0, 0, 0, 0, 0, 0, 0, 0, 
[2024-06-21 10:38:07.526430] [0x0000007f9bffe9a0] [LogDataTag] [0x000021f9] [85] 1718980687273216, 0.252777, 0, 0, 0, 0, 0, 0, 0, 0, 0, 0, 0, 0, 0.244399, 0.00963261, -0.282833, -0.297812, 0.999529, -0.00645983, -0.00595276, -0.0294142, -0.0027705, 0.00664382, 0.00146572, -0.00152912, -0.00159987, 0.0019655, -0.0125647, -0.0122802, -0.0587619, 0, 0, 0, 0, 0, 0, 0, 0, 0, 0, 0, 0, 0, 0, 0, 0, 0, 0, 0, 0, 0, 0, 0, 0, 0, 0, 0, 0, 0, 0, 0, 0, 0, 0, 0, 0, 0, 0, 0, 0, 0, 0, 0, 0, 0, 0, 0, 0, 0, 0, 0, 0, 0, 0, 0, 0, 0, 0, 0, 0, 0, 0, 0, 0, 0, 0, 0, 0, 0, 0, 0, 
[2024-06-21 10:38:07.536541] [0x0000007fa97d99a0] [LogDataTag] [0x000021f9] [90] 1718980687273216, 0.262862, 0, 0, 0, 0, 0, 0, 0, 0, 0, 0, 0, 0, 0.253409, 0.00963289, -0.282784, -0.297823, 0.999531, -0.00644524, -0.00594783, -0.0293386, -0.00254641, 0.00861214, 0.000847627, -0.000456431, 0.00337201, 0.0194441, -0.0125367, -0.0122686, -0.058611, 0, 0, 0, 0, 0, 0, 0, 0, 0, 0, 0, 0, 0, 0, 0, 0, 0, 0, 0, 0, 0, 0, 0, 0, 0, 0, 0, 0, 0, 0, 0, 0, 0, 0, 0, 0, 0, 0, 0, 0, 0, 0, 0, 0, 0, 0, 0, 0, 0, 0, 0, 0, 0, 0, 0, 0, 0, 0, 0, 0, 0, 0, 0, 0, 0, 0, 0, 0, 0, 0, 0, 
[2024-06-21 10:38:07.546471] [0x0000007fa8fd89a0] [LogDataTag] [0x000021f9] [94] 1718980687273216, 0.272847, 0, 0, 0, 0, 0, 0, 0, 0, 0, 0, 0, 0, 0.262483, 0.00963286, -0.282723, -0.297836, 0.999536, -0.00642643, -0.00593276, -0.0291905, -0.0025006, 0.00903113, 0.000639406, 0.00461085, 0.00990528, 0.0323799, -0.0125018, -0.0122355, -0.058315, 0, 0, 0, 0, 0, 0, 0, 0, 0, 0, 0, 0, 0, 0, 0, 0, 0, 0, 0, 0, 0, 0, 0, 0, 0, 0, 0, 0, 0, 0, 0, 0, 0, 0, 0, 0, 0, 0, 0, 0, 0, 0, 0, 0, 0, 0, 0, 0, 0, 0, 0, 0, 0, 0, 0, 0, 0, 0, 0, 0, 0, 0, 0, 0, 0, 0, 0, 0, 0, 0, 0, 
[2024-06-21 10:38:07.556451] [0x0000007faff34010] [LogDataTag] [0x000021f9] [99] 1718980687273216, 0.282838, 0, 0, 0, 0, 0, 0, 0, 0, 0, 0, 0, 0, 0.271459, 0.00963154, -0.282663, -0.297886, 0.999539, -0.00645082, -0.00588124, -0.0290951, -0.002547, 0.00840674, 0.000913514, -0.00858835, 0.00818739, 0.0178846, -0.0125547, -0.0121327, -0.0581245, 0, 0, 0, 0, 0, 0, 0, 0, 0, 0, 0, 0, 0, 0, 0, 0, 0, 0, 0, 0, 0, 0, 0, 0, 0, 0, 0, 0, 0, 0, 0, 0, 0, 0, 0, 0, 0, 0, 0, 0, 0, 0, 0, 0, 0, 0, 0, 0, 0, 0, 0, 0, 0, 0, 0, 0, 0, 0, 0, 0, 0, 0, 0, 0, 0, 0, 0, 0, 0, 0, 0, 
[2024-06-21 10:38:07.566439] [0x0000007f9bffe9a0] [LogDataTag] [0x000021f9] [103] 1718980687273216, 0.292829, 0, 0, 0, 0, 0, 0, 0, 0, 0, 0, 0, 0, 0.280492, 0.00962862, -0.282608, -0.297928, 0.999539, -0.00645728, -0.00586868, -0.0290813, -0.00238325, 0.00772168, 0.000957202, -0.00146098, 0.00185019, -0.00384003, -0.0125685, -0.0121078, -0.0580968, 0, 0, 0, 0, 0, 0, 0, 0, 0, 0, 0, 0, 0, 0, 0, 0, 0, 0, 0, 0, 0, 0, 0, 0, 0, 0, 0, 0, 0, 0, 0, 0, 0, 0, 0, 0, 0, 0, 0, 0, 0, 0, 0, 0, 0, 0, 0, 0, 0, 0, 0, 0, 0, 0, 0, 0, 0, 0, 0, 0, 0, 0, 0, 0, 0, 0, 0, 0, 0, 0, 0, 
[2024-06-21 10:38:07.576438] [0x0000007fa97d99a0] [LogDataTag] [0x000021f9] [108] 1718980687273216, 0.302833, 0, 0, 0, 0, 0, 0, 0, 0, 0, 0, 0, 0, 0.289393, 0.0120788, -0.230681, -0.315553, 0.999537, -0.00645186, -0.005897, -0.0291635, -0.00249474, 0.00730161, 0.0010157, 0.00664048, -0.00573071, -0.0210418, -0.012555, -0.0121651, -0.0582611, 0, 0, 0, 0, 0, 0, 0, 0, 0, 0, 0, 0, 0, 0, 0, 0, 0, 0, 0, 0, 0, 0, 0, 0, 0, 0, 0, 0, 0, 0, 0, 0, 0, 0, 0, 0, 0, 0, 0, 0, 0, 0, 0, 0, 0, 0, 0, 0, 0, 0, 0, 0, 0, 0, 0, 0, 0, 0, 0, 0, 0, 0, 0, 0, 0, 0, 0, 0, 0, 0, 0, 
[2024-06-21 10:38:07.586457] [0x0000007fa8fd89a0] [LogDataTag] [0x000021f9] [112] 1718980687273216, 0.312845, 0, 0, 0, 0, 0, 0, 0, 0, 0, 0, 0, 0, 0.298396, 0.0120751, -0.230627, -0.315589, 0.999533, -0.0064536, -0.00590916, -0.0292651, -0.00242341, 0.00842807, 0.000712186, -0.00200347, 0.00513333, -0.0232817, -0.0125566, -0.0121908, -0.0584642, 0, 0, 0, 0, 0, 0, 0, 0, 0, 0, 0, 0, 0, 0, 0, 0, 0, 0, 0, 0, 0, 0, 0, 0, 0, 0, 0, 0, 0, 0, 0, 0, 0, 0, 0, 0, 0, 0, 0, 0, 0, 0, 0, 0, 0, 0, 0, 0, 0, 0, 0, 0, 0, 0, 0, 0, 0, 0, 0, 0, 0, 0, 0, 0, 0, 0, 0, 0, 0, 0, 0, 
[2024-06-21 10:38:07.596770] [0x0000007faff34010] [LogDataTag] [0x000021f9] [116] 1718980687273216, 0.322855, 0, 0, 0, 0, 0, 0, 0, 0, 0, 0, 0, 0, 0.307287, 0.012069, -0.23056, -0.315622, 0.99953, -0.00645214, -0.00593069, -0.029363, -0.00265353, 0.00996456, 0.000759916, -9.28485e-05, -0.00693404, -0.0185904, -0.0125512, -0.012235, -0.05866, 0, 0, 0, 0, 0, 0, 0, 0, 0, 0, 0, 0, 0, 0, 0, 0, 0, 0, 0, 0, 0, 0, 0, 0, 0, 0, 0, 0, 0, 0, 0, 0, 0, 0, 0, 0, 0, 0, 0, 0, 0, 0, 0, 0, 0, 0, 0, 0, 0, 0, 0, 0, 0, 0, 0, 0, 0, 0, 0, 0, 0, 0, 0, 0, 0, 0, 0, 0, 0, 0, 0, 
[2024-06-21 10:38:07.606432] [0x0000007f9bffe9a0] [LogDataTag] [0x000021f9] [121] 1718980687273216, 0.332822, 0, 0, 0, 0, 0, 0, 0, 0, 0, 0, 0, 0, 0.3164, 0.0120626, -0.230476, -0.315655, 0.999531, -0.00646556, -0.00590523, -0.029354, -0.00262262, 0.0115706, 0.000446623, -0.000199815, 0.0113075, 0.0102755, -0.0125796, -0.0121848, -0.0586421, 0, 0, 0, 0, 0, 0, 0, 0, 0, 0, 0, 0, 0, 0, 0, 0, 0, 0, 0, 0, 0, 0, 0, 0, 0, 0, 0, 0, 0, 0, 0, 0, 0, 0, 0, 0, 0, 0, 0, 0, 0, 0, 0, 0, 0, 0, 0, 0, 0, 0, 0, 0, 0, 0, 0, 0, 0, 0, 0, 0, 0, 0, 0, 0, 0, 0, 0, 0, 0, 0, 0, 
[2024-06-21 10:38:07.616435] [0x0000007fa97d99a0] [LogDataTag] [0x000021f9] [125] 1718980687273216, 0.342829, 0, 0, 0, 0, 0, 0, 0, 0, 0, 0, 0, 0, 0.325358, 0.0120561, -0.230377, -0.315684, 0.999534, -0.00647544, -0.00590053, -0.0292502, -0.00250073, 0.0131224, 0.000885328, -0.00103798, 0.000779328, 0.030529, -0.0126009, -0.0121747, -0.0584342, 0, 0, 0, 0, 0, 0, 0, 0, 0, 0, 0, 0, 0, 0, 0, 0, 0, 0, 0, 0, 0, 0, 0, 0, 0, 0, 0, 0, 0, 0, 0, 0, 0, 0, 0, 0, 0, 0, 0, 0, 0, 0, 0, 0, 0, 0, 0, 0, 0, 0, 0, 0, 0, 0, 0, 0, 0, 0, 0, 0, 0, 0, 0, 0, 0, 0, 0, 0, 0, 0, 0, 
[2024-06-21 10:38:07.626826] [0x0000007fa8fd89a0] [LogDataTag] [0x000021f9] [130] 1718980687273216, 0.352845, 0, 0, 0, 0, 0, 0, 0, 0, 0, 0, 0, 0, 0.334346, 0.0120496, -0.23027, -0.315706, 0.999537, -0.0064648, -0.00588508, -0.0291336, -0.00243506, 0.0134198, 0.00143585, 0.00787706, 0.00249002, 0.0273135, -0.012582, -0.0121417, -0.0582013, 0, 0, 0, 0, 0, 0, 0, 0, 0, 0, 0, 0, 0, 0, 0, 0, 0, 0, 0, 0, 0, 0, 0, 0, 0, 0, 0, 0, 0, 0, 0, 0, 0, 0, 0, 0, 0, 0, 0, 0, 0, 0, 0, 0, 0, 0, 0, 0, 0, 0, 0, 0, 0, 0, 0, 0, 0, 0, 0, 0, 0, 0, 0, 0, 0, 0, 0, 0, 0, 0, 0, 
[2024-06-21 10:38:07.636520] [0x0000007faff34010] [LogDataTag] [0x000021f9] [134] 1718980687273216, 0.362834, 0, 0, 0, 0, 0, 0, 0, 0, 0, 0, 0, 0, 0.343391, 0.0120445, -0.230166, -0.315723, 0.999539, -0.00646396, -0.00586949, -0.0290882, -0.00247636, 0.0125817, 0.00149573, 0.00163248, 0.00402472, 0.0071012, -0.0125818, -0.0121099, -0.0581107, 0, 0, 0, 0, 0, 0, 0, 0, 0, 0, 0, 0, 0, 0, 0, 0, 0, 0, 0, 0, 0, 0, 0, 0, 0, 0, 0, 0, 0, 0, 0, 0, 0, 0, 0, 0, 0, 0, 0, 0, 0, 0, 0, 0, 0, 0, 0, 0, 0, 0, 0, 0, 0, 0, 0, 0, 0, 0, 0, 0, 0, 0, 0, 0, 0, 0, 0, 0, 0, 0, 0, 
[2024-06-21 10:38:07.646521] [0x0000007f9bffe9a0] [LogDataTag] [0x000021f9] [139] 1718980687273216, 0.372834, 0, 0, 0, 0, 0, 0, 0, 0, 0, 0, 0, 0, 0.352478, 0.0120393, -0.230069, -0.315739, 0.999538, -0.00644932, -0.00585627, -0.0291115, -0.00255624, 0.0115778, 0.00144112, -0.000215604, 0.00190515, -0.00693221, -0.012553, -0.0120829, -0.0581577, 0, 0, 0, 0, 0, 0, 0, 0, 0, 0, 0, 0, 0, 0, 0, 0, 0, 0, 0, 0, 0, 0, 0, 0, 0, 0, 0, 0, 0, 0, 0, 0, 0, 0, 0, 0, 0, 0, 0, 0, 0, 0, 0, 0, 0, 0, 0, 0, 0, 0, 0, 0, 0, 0, 0, 0, 0, 0, 0, 0, 0, 0, 0, 0, 0, 0, 0, 0, 0, 0, 0, 
[2024-06-21 10:38:07.656454] [0x0000007fa97d99a0] [LogDataTag] [0x000021f9] [144] 1718980687273216, 0.382847, 0, 0, 0, 0, 0, 0, 0, 0, 0, 0, 0, 0, 0.361238, 0.0120332, -0.229976, -0.315753, 0.999535, -0.00647207, -0.00587997, -0.0292198, -0.00245635, 0.011743, 0.00148471, -0.00197045, -0.00452357, -0.0186964, -0.0125958, -0.012133, -0.0583737, 0, 0, 0, 0, 0, 0, 0, 0, 0, 0, 0, 0, 0, 0, 0, 0, 0, 0, 0, 0, 0, 0, 0, 0, 0, 0, 0, 0, 0, 0, 0, 0, 0, 0, 0, 0, 0, 0, 0, 0, 0, 0, 0, 0, 0, 0, 0, 0, 0, 0, 0, 0, 0, 0, 0, 0, 0, 0, 0, 0, 0, 0, 0, 0, 0, 0, 0, 0, 0, 0, 0, 
[2024-06-21 10:38:07.666455] [0x0000007fa97d99a0] [LogDataTag] [0x000021f9] [148] 1718980687273216, 0.39284, 0, 0, 0, 0, 0, 0, 0, 0, 0, 0, 0, 0, 0.379306, 0.0120257, -0.229773, -0.31578, 0.999531, -0.00649031, -0.00589767, -0.0293489, -0.00237011, 0.0139772, 0.00110993, -0.00382513, 0.00200301, 0.00277798, -0.0126296, -0.0121711, -0.0586317, 0, 0, 0, 0, 0, 0, 0, 0, 0, 0, 0, 0, 0, 0, 0, 0, 0, 0, 0, 0, 0, 0, 0, 0, 0, 0, 0, 0, 0, 0, 0, 0, 0, 0, 0, 0, 0, 0, 0, 0, 0, 0, 0, 0, 0, 0, 0, 0, 0, 0, 0, 0, 0, 0, 0, 0, 0, 0, 0, 0, 0, 0, 0, 0, 0, 0, 0, 0, 0, 0, 0, 
[2024-06-21 10:38:07.676841] [0x0000007faff34010] [LogDataTag] [0x000021f9] [152] 1718980687273216, 0.40288, 0, 0, 0, 0, 0, 0, 0, 0, 0, 0, 0, 0, 0.388408, 0.0120216, -0.229655, -0.315794, 0.999534, -0.00646325, -0.00589002, -0.0292621, -0.00240756, 0.0152211, 0.00068769, 0.00642693, 0.000597891, 0.0243353, -0.012577, -0.0121531, -0.0584584, 0, 0, 0, 0, 0, 0, 0, 0, 0, 0, 0, 0, 0, 0, 0, 0, 0, 0, 0, 0, 0, 0, 0, 0, 0, 0, 0, 0, 0, 0, 0, 0, 0, 0, 0, 0, 0, 0, 0, 0, 0, 0, 0, 0, 0, 0, 0, 0, 0, 0, 0, 0, 0, 0, 0, 0, 0, 0, 0, 0, 0, 0, 0, 0, 0, 0, 0, 0, 0, 0, 0, 
[2024-06-21 10:38:07.686469] [0x0000007f9bffe9a0] [LogDataTag] [0x000021f9] [157] 1718980687273216, 0.412854, 0, 0, 0, 0, 0, 0, 0, 0, 0, 0, 0, 0, 0.397311, 0.0120161, -0.22953, -0.315811, 0.999537, -0.00647388, -0.00586214, -0.0291601, -0.00227768, 0.0154176, 0.000289041, -0.00329096, 0.0100254, 0.0205406, -0.0126011, -0.0120967, -0.0582545, 0, 0, 0, 0, 0, 0, 0, 0, 0, 0, 0, 0, 0, 0, 0, 0, 0, 0, 0, 0, 0, 0, 0, 0, 0, 0, 0, 0, 0, 0, 0, 0, 0, 0, 0, 0, 0, 0, 0, 0, 0, 0, 0, 0, 0, 0, 0, 0, 0, 0, 0, 0, 0, 0, 0, 0, 0, 0, 0, 0, 0, 0, 0, 0, 0, 0, 0, 0, 0, 0, 0, 
[2024-06-21 10:38:07.696505] [0x0000007fa8fd89a0] [LogDataTag] [0x000021f9] [161] 1718980687273216, 0.422882, 0, 0, 0, 0, 0, 0, 0, 0, 0, 0, 0, 0, 0.406457, 0.0120125, -0.229408, -0.31583, 0.999538, -0.0064905, -0.00583703, -0.0291143, -0.00234091, 0.0148352, 0.000330819, -0.00661896, 0.00973729, 0.00346141, -0.0126364, -0.0120469, -0.0581629, 0, 0, 0, 0, 0, 0, 0, 0, 0, 0, 0, 0, 0, 0, 0, 0, 0, 0, 0, 0, 0, 0, 0, 0, 0, 0, 0, 0, 0, 0, 0, 0, 0, 0, 0, 0, 0, 0, 0, 0, 0, 0, 0, 0, 0, 0, 0, 0, 0, 0, 0, 0, 0, 0, 0, 0, 0, 0, 0, 0, 0, 0, 0, 0, 0, 0, 0, 0, 0, 0, 0, 
[2024-06-21 10:38:07.706553] [0x0000007fa97d99a0] [LogDataTag] [0x000021f9] [165] 1718980687273216, 0.4329, 0, 0, 0, 0, 0, 0, 0, 0, 0, 0, 0, 0, 0.419938, 0.0120097, -0.229292, -0.315846, 0.999538, -0.00649174, -0.005831, -0.0291153, -0.00218331, 0.0146333, 0.000452598, -0.00261164, 0.00326806, -0.00781789, -0.0126392, -0.0120349, -0.058165, 0, 0, 0, 0, 0, 0, 0, 0, 0, 0, 0, 0, 0, 0, 0, 0, 0, 0, 0, 0, 0, 0, 0, 0, 0, 0, 0, 0, 0, 0, 0, 0, 0, 0, 0, 0, 0, 0, 0, 0, 0, 0, 0, 0, 0, 0, 0, 0, 0, 0, 0, 0, 0, 0, 0, 0, 0, 0, 0, 0, 0, 0, 0, 0, 0, 0, 0, 0, 0, 0, 0, 
[2024-06-21 10:38:07.716523] [0x0000007faff34010] [LogDataTag] [0x000021f9] [170] 1718980687273216, 0.442843, 0, 0, 0, 0, 0, 0, 0, 0, 0, 0, 0, 0, 0.428754, 0.0120065, -0.229176, -0.31586, 0.999536, -0.00649713, -0.00584979, -0.0291682, -0.00208245, 0.0144928, 0.000745171, 0.00125368, -0.0029466, -0.0147274, -0.0126482, -0.0120735, -0.0582706, 0, 0, 0, 0, 0, 0, 0, 0, 0, 0, 0, 0, 0, 0, 0, 0, 0, 0, 0, 0, 0, 0, 0, 0, 0, 0, 0, 0, 0, 0, 0, 0, 0, 0, 0, 0, 0, 0, 0, 0, 0, 0, 0, 0, 0, 0, 0, 0, 0, 0, 0, 0, 0, 0, 0, 0, 0, 0, 0, 0, 0, 0, 0, 0, 0, 0, 0, 0, 0, 0, 0, 
[2024-06-21 10:38:07.726470] [0x0000007f9bffe9a0] [LogDataTag] [0x000021f9] [174] 1718980687273216, 0.452844, 0, 0, 0, 0, 0, 0, 0, 0, 0, 0, 0, 0, 0.438007, 0.0120065, -0.229063, -0.315872, 0.999534, -0.00650919, -0.0058529, -0.0292525, -0.00187706, 0.0147787, 0.000798674, -0.00485917, 0.000747606, -0.0134215, -0.0126712, -0.0120815, -0.058439, 0, 0, 0, 0, 0, 0, 0, 0, 0, 0, 0, 0, 0, 0, 0, 0, 0, 0, 0, 0, 0, 0, 0, 0, 0, 0, 0, 0, 0, 0, 0, 0, 0, 0, 0, 0, 0, 0, 0, 0, 0, 0, 0, 0, 0, 0, 0, 0, 0, 0, 0, 0, 0, 0, 0, 0, 0, 0, 0, 0, 0, 0, 0, 0, 0, 0, 0, 0, 0, 0, 0, 
[2024-06-21 10:38:07.736641] [0x0000007fa8fd89a0] [LogDataTag] [0x000021f9] [178] 1718980687273216, 0.462866, 0, 0, 0, 0, 0, 0, 0, 0, 0, 0, 0, 0, 0.446916, 0.0120089, -0.228949, -0.315883, 0.999532, -0.00651828, -0.00585179, -0.0293029, -0.00168489, 0.0153337, 0.000605396, -0.00339669, -0.00264211, -0.00429044, -0.0126888, -0.0120804, -0.0585398, 0, 0, 0, 0, 0, 0, 0, 0, 0, 0, 0, 0, 0, 0, 0, 0, 0, 0, 0, 0, 0, 0, 0, 0, 0, 0, 0, 0, 0, 0, 0, 0, 0, 0, 0, 0, 0, 0, 0, 0, 0, 0, 0, 0, 0, 0, 0, 0, 0, 0, 0, 0, 0, 0, 0, 0, 0, 0, 0, 0, 0, 0, 0, 0, 0, 0, 0, 0, 0, 0, 0, 
[2024-06-21 10:38:07.746449] [0x0000007fa97d99a0] [LogDataTag] [0x000021f9] [183] 1718980687273216, 0.472836, 0, 0, 0, 0, 0, 0, 0, 0, 0, 0, 0, 0, 0.455907, 0.012011, -0.228831, -0.315897, 0.999532, -0.00653446, -0.00583189, -0.0292949, -0.0019558, 0.016196, 0.000287932, -0.00779106, 0.00641534, 0.00773883, -0.0127224, -0.0120415, -0.0585239, 0, 0, 0, 0, 0, 0, 0, 0, 0, 0, 0, 0, 0, 0, 0, 0, 0, 0, 0, 0, 0, 0, 0, 0, 0, 0, 0, 0, 0, 0, 0, 0, 0, 0, 0, 0, 0, 0, 0, 0, 0, 0, 0, 0, 0, 0, 0, 0, 0, 0, 0, 0, 0, 0, 0, 0, 0, 0, 0, 0, 0, 0, 0, 0, 0, 0, 0, 0, 0, 0, 0, 
[2024-06-21 10:38:07.756459] [0x0000007faff34010] [LogDataTag] [0x000021f9] [187] 1718980687273216, 0.48284, 0, 0, 0, 0, 0, 0, 0, 0, 0, 0, 0, 0, 0.461928, 0.0120128, -0.228709, -0.315911, 0.999536, -0.00654439, -0.0058079, -0.0291924, -0.00192211, 0.016958, 0.000508354, -0.00509455, 0.00665508, 0.0238648, -0.0127449, -0.0119928, -0.0583189, 0, 0, 0, 0, 0, 0, 0, 0, 0, 0, 0, 0, 0, 0, 0, 0, 0, 0, 0, 0, 0, 0, 0, 0, 0, 0, 0, 0, 0, 0, 0, 0, 0, 0, 0, 0, 0, 0, 0, 0, 0, 0, 0, 0, 0, 0, 0, 0, 0, 0, 0, 0, 0, 0, 0, 0, 0, 0, 0, 0, 0, 0, 0, 0, 0, 0, 0, 0, 0, 0, 0, 
[2024-06-21 10:38:07.766762] [0x0000007f9bffe9a0] [LogDataTag] [0x000021f9] [192] 1718980687273216, 0.493178, 0, 0, 0, 0, 0, 0, 0, 0, 0, 0, 0, 0, 0.470764, 0.0120135, -0.228583, -0.315923, 0.999539, -0.00652652, -0.00580255, -0.0290847, -0.00201541, 0.0165063, 0.000317884, 0.00138898, 0.0014438, 0.0141416, -0.0127107, -0.0119797, -0.0581037, 0, 0, 0, 0, 0, 0, 0, 0, 0, 0, 0, 0, 0, 0, 0, 0, 0, 0, 0, 0, 0, 0, 0, 0, 0, 0, 0, 0, 0, 0, 0, 0, 0, 0, 0, 0, 0, 0, 0, 0, 0, 0, 0, 0, 0, 0, 0, 0, 0, 0, 0, 0, 0, 0, 0, 0, 0, 0, 0, 0, 0, 0, 0, 0, 0, 0, 0, 0, 0, 0, 0, 
[2024-06-21 10:38:07.776517] [0x0000007fa8fd89a0] [LogDataTag] [0x000021f9] [196] 1718980687273216, 0.50289, 0, 0, 0, 0, 0, 0, 0, 0, 0, 0, 0, 0, 0.488982, 0.0120174, -0.228354, -0.315954, 0.999538, -0.00650938, -0.00574832, -0.0291333, -0.00190161, 0.0157835, -9.61523e-05, -0.00149487, 0.00748686, -0.0170092, -0.012679, -0.0118709, -0.0582019, 0, 0, 0, 0, 0, 0, 0, 0, 0, 0, 0, 0, 0, 0, 0, 0, 0, 0, 0, 0, 0, 0, 0, 0, 0, 0, 0, 0, 0, 0, 0, 0, 0, 0, 0, 0, 0, 0, 0, 0, 0, 0, 0, 0, 0, 0, 0, 0, 0, 0, 0, 0, 0, 0, 0, 0, 0, 0, 0, 0, 0, 0, 0, 0, 0, 0, 0, 0, 0, 0, 0, 
[2024-06-21 10:38:07.786484] [0x0000007fa8fd89a0] [LogDataTag] [0x000021f9] [200] 1718980687273216, 0.512849, 0, 0, 0, 0, 0, 0, 0, 0, 0, 0, 0, 0, 0.497683, 0.0120189, -0.228245, -0.31597, 0.999535, -0.00652048, -0.00577441, -0.0292294, -0.00182498, 0.0156471, -0.000119555, 0.000700142, -0.00224458, -0.0103729, -0.0127054, -0.0119686, -0.0585096, 0, 0, 0, 0, 0, 0, 0, 0, 0, 0, 0, 0, 0, 0, 0, 0, 0, 0, 0, 0, 0, 0, 0, 0, 0, 0, 0, 0, 0, 0, 0, 0, 0, 0, 0, 0, 0, 0, 0, 0, 0, 0, 0, 0, 0, 0, 0, 0, 0, 0, 0, 0, 0, 0, 0, 0, 0, 0, 0, 0, 0, 0, 0, 0, 0, 0, 0, 0, 0, 0, 0, 
[2024-06-21 10:38:07.796462] [0x0000007fa8fd89a0] [LogDataTag] [0x000021f9] [205] 1718980687273216, 0.522846, 0, 0, 0, 0, 0, 0, 0, 0, 0, 0, 0, 0, 0.50686, 0.0120219, -0.22814, -0.315985, 0.999533, -0.00652485, -0.00579575, -0.0292875, -0.00185003, 0.0160109, -0.000119555, 0.000700142, -0.00224458, -0.0103729, -0.0127054, -0.0119686, -0.0585096, 0, 0, 0, 0, 0, 0, 0, 0, 0, 0, 0, 0, 0, 0, 0, 0, 0, 0, 0, 0, 0, 0, 0, 0, 0, 0, 0, 0, 0, 0, 0, 0, 0, 0, 0, 0, 0, 0, 0, 0, 0, 0, 0, 0, 0, 0, 0, 0, 0, 0, 0, 0, 0, 0, 0, 0, 0, 0, 0, 0, 0, 0, 0, 0, 0, 0, 0, 0, 0, 0, 0, 
[2024-06-21 10:38:07.806398] [0x0000007f9bffe9a0] [LogDataTag] [0x000021f9] [210] 1718980687273216, 0.532836, 0, 0, 0, 0, 0, 0, 0, 0, 0, 0, 0, 0, 0.515676, 0.0120239, -0.228028, -0.316, 0.999533, -0.00652355, -0.00578648, -0.0292915, -0.00170048, 0.0168708, -0.000168585, 0.00114292, 0.00382229, 0.00423155, -0.0127033, -0.01195, -0.0585177, 0, 0, 0, 0, 0, 0, 0, 0, 0, 0, 0, 0, 0, 0, 0, 0, 0, 0, 0, 0, 0, 0, 0, 0, 0, 0, 0, 0, 0, 0, 0, 0, 0, 0, 0, 0, 0, 0, 0, 0, 0, 0, 0, 0, 0, 0, 0, 0, 0, 0, 0, 0, 0, 0, 0, 0, 0, 0, 0, 0, 0, 0, 0, 0, 0, 0, 0, 0, 0, 0, 0, 
[2024-06-21 10:38:07.816443] [0x0000007fa97d99a0] [LogDataTag] [0x000021f9] [214] 1718980687273216, 0.54283, 0, 0, 0, 0, 0, 0, 0, 0, 0, 0, 0, 0, 0.524877, 0.0120283, -0.227918, -0.316014, 0.999535, -0.00650689, -0.00578769, -0.0292368, -0.00169847, 0.01719, -7.36393e-05, 0.0036704, -0.00234974, 0.0146628, -0.0126705, -0.0119508, -0.0584085, 0, 0, 0, 0, 0, 0, 0, 0, 0, 0, 0, 0, 0, 0, 0, 0, 0, 0, 0, 0, 0, 0, 0, 0, 0, 0, 0, 0, 0, 0, 0, 0, 0, 0, 0, 0, 0, 0, 0, 0, 0, 0, 0, 0, 0, 0, 0, 0, 0, 0, 0, 0, 0, 0, 0, 0, 0, 0, 0, 0, 0, 0, 0, 0, 0, 0, 0, 0, 0, 0, 0, 
[2024-06-21 10:38:07.826415] [0x0000007faff34010] [LogDataTag] [0x000021f9] [219] 1718980687273216, 0.552823, 0, 0, 0, 0, 0, 0, 0, 0, 0, 0, 0, 0, 0.533961, 0.0120337, -0.227814, -0.316029, 0.999538, -0.00651066, -0.00579012, -0.0291362, -0.00165351, 0.0170939, -0.000139248, 0.00353711, -0.000194595, 0.0222398, -0.0126791, -0.0119546, -0.058207, 0, 0, 0, 0, 0, 0, 0, 0, 0, 0, 0, 0, 0, 0, 0, 0, 0, 0, 0, 0, 0, 0, 0, 0, 0, 0, 0, 0, 0, 0, 0, 0, 0, 0, 0, 0, 0, 0, 0, 0, 0, 0, 0, 0, 0, 0, 0, 0, 0, 0, 0, 0, 0, 0, 0, 0, 0, 0, 0, 0, 0, 0, 0, 0, 0, 0, 0, 0, 0, 0, 0, 
[2024-06-21 10:38:07.836510] [0x0000007fa8fd89a0] [LogDataTag] [0x000021f9] [223] 1718980687273216, 0.56284, 0, 0, 0, 0, 0, 0, 0, 0, 0, 0, 0, 0, 0.542952, 0.0120414, -0.227722, -0.316044, 0.999539, -0.00650551, -0.0057858, -0.0290916, -0.00177946, 0.0165696, 0.000256886, 0.00229312, 0.00275089, 0.00585752, -0.0126696, -0.011945, -0.0581179, 0, 0, 0, 0, 0, 0, 0, 0, 0, 0, 0, 0, 0, 0, 0, 0, 0, 0, 0, 0, 0, 0, 0, 0, 0, 0, 0, 0, 0, 0, 0, 0, 0, 0, 0, 0, 0, 0, 0, 0, 0, 0, 0, 0, 0, 0, 0, 0, 0, 0, 0, 0, 0, 0, 0, 0, 0, 0, 0, 0, 0, 0, 0, 0, 0, 0, 0, 0, 0, 0, 0, 
[2024-06-21 10:38:07.846415] [0x0000007f9bffe9a0] [LogDataTag] [0x000021f9] [227] 1718980687273216, 0.572815, 0, 0, 0, 0, 0, 0, 0, 0, 0, 0, 0, 0, 0.551859, 0.012048, -0.22764, -0.316055, 0.999538, -0.00650491, -0.00580048, -0.0291086, -0.00187232, 0.0159684, 0.000363444, 0.00175628, 0.000915076, -0.00950171, -0.0126674, -0.0119746, -0.0581518, 0, 0, 0, 0, 0, 0, 0, 0, 0, 0, 0, 0, 0, 0, 0, 0, 0, 0, 0, 0, 0, 0, 0, 0, 0, 0, 0, 0, 0, 0, 0, 0, 0, 0, 0, 0, 0, 0, 0, 0, 0, 0, 0, 0, 0, 0, 0, 0, 0, 0, 0, 0, 0, 0, 0, 0, 0, 0, 0, 0, 0, 0, 0, 0, 0, 0, 0, 0, 0, 0, 0, 
[2024-06-21 10:38:07.856524] [0x0000007fa97d99a0] [LogDataTag] [0x000021f9] [232] 1718980687273216, 0.582825, 0, 0, 0, 0, 0, 0, 0, 0, 0, 0, 0, 0, 0.56085, 0.0120552, -0.227568, -0.316066, 0.999536, -0.0064992, -0.00582503, -0.0291775, -0.00185453, 0.0155549, 0.000443735, 0.00198926, -0.00134923, -0.0118735, -0.0126537, -0.0120242, -0.0582894, 0, 0, 0, 0, 0, 0, 0, 0, 0, 0, 0, 0, 0, 0, 0, 0, 0, 0, 0, 0, 0, 0, 0, 0, 0, 0, 0, 0, 0, 0, 0, 0, 0, 0, 0, 0, 0, 0, 0, 0, 0, 0, 0, 0, 0, 0, 0, 0, 0, 0, 0, 0, 0, 0, 0, 0, 0, 0, 0, 0, 0, 0, 0, 0, 0, 0, 0, 0, 0, 0, 0, 
[2024-06-21 10:38:07.866444] [0x0000007faff34010] [LogDataTag] [0x000021f9] [236] 1718980687273216, 0.592818, 0, 0, 0, 0, 0, 0, 0, 0, 0, 0, 0, 0, 0.578665, 0.0120642, -0.227422, -0.316085, 0.999533, -0.00651367, -0.00583763, -0.0292651, -0.00187653, 0.0156337, 0.000415784, 0.000732297, -0.00108937, 0.000180908, -0.0126809, -0.0120514, -0.0584645, 0, 0, 0, 0, 0, 0, 0, 0, 0, 0, 0, 0, 0, 0, 0, 0, 0, 0, 0, 0, 0, 0, 0, 0, 0, 0, 0, 0, 0, 0, 0, 0, 0, 0, 0, 0, 0, 0, 0, 0, 0, 0, 0, 0, 0, 0, 0, 0, 0, 0, 0, 0, 0, 0, 0, 0, 0, 0, 0, 0, 0, 0, 0, 0, 0, 0, 0, 0, 0, 0, 0, 
[2024-06-21 10:38:07.876427] [0x0000007fa8fd89a0] [LogDataTag] [0x000021f9] [240] 1718980687273216, 0.602824, 0, 0, 0, 0, 0, 0, 0, 0, 0, 0, 0, 0, 0.587661, 0.0120682, -0.227343, -0.316095, 0.999534, -0.0065384, -0.00583233, -0.0292429, -0.00175039, 0.0158047, -5.54143e-05, -0.00373518, 0.00689402, 0.00487395, -0.0127309, -0.0120419, -0.0584198, 0, 0, 0, 0, 0, 0, 0, 0, 0, 0, 0, 0, 0, 0, 0, 0, 0, 0, 0, 0, 0, 0, 0, 0, 0, 0, 0, 0, 0, 0, 0, 0, 0, 0, 0, 0, 0, 0, 0, 0, 0, 0, 0, 0, 0, 0, 0, 0, 0, 0, 0, 0, 0, 0, 0, 0, 0, 0, 0, 0, 0, 0, 0, 0, 0, 0, 0, 0, 0, 0, 0, 
[2024-06-21 10:38:07.886475] [0x0000007f9bffe9a0] [LogDataTag] [0x000021f9] [244] 1718980687273216, 0.612845, 0, 0, 0, 0, 0, 0, 0, 0, 0, 0, 0, 0, 0.596677, 0.0120719, -0.227261, -0.316108, 0.999536, -0.00653273, -0.005813, -0.0291831, -0.00167364, 0.0158624, -0.000253529, -0.001932, 0.00687911, 0.0144959, -0.0127214, -0.0120022, -0.0583004, 0, 0, 0, 0, 0, 0, 0, 0, 0, 0, 0, 0, 0, 0, 0, 0, 0, 0, 0, 0, 0, 0, 0, 0, 0, 0, 0, 0, 0, 0, 0, 0, 0, 0, 0, 0, 0, 0, 0, 0, 0, 0, 0, 0, 0, 0, 0, 0, 0, 0, 0, 0, 0, 0, 0, 0, 0, 0, 0, 0, 0, 0, 0, 0, 0, 0, 0, 0, 0, 0, 0, 
[2024-06-21 10:38:07.896495] [0x0000007fa97d99a0] [LogDataTag] [0x000021f9] [248] 1718980687273216, 0.622861, 0, 0, 0, 0, 0, 0, 0, 0, 0, 0, 0, 0, 0.605776, 0.012078, -0.227194, -0.316122, 0.999539, -0.00651946, -0.00579575, -0.0290982, -0.00156132, 0.015498, -0.000300925, 0.00549239, 0.00550365, 0.0200813, -0.0126969, -0.0119658, -0.0581309, 0, 0, 0, 0, 0, 0, 0, 0, 0, 0, 0, 0, 0, 0, 0, 0, 0, 0, 0, 0, 0, 0, 0, 0, 0, 0, 0, 0, 0, 0, 0, 0, 0, 0, 0, 0, 0, 0, 0, 0, 0, 0, 0, 0, 0, 0, 0, 0, 0, 0, 0, 0, 0, 0, 0, 0, 0, 0, 0, 0, 0, 0, 0, 0, 0, 0, 0, 0, 0, 0, 0, 
[2024-06-21 10:38:07.906450] [0x0000007faff34010] [LogDataTag] [0x000021f9] [253] 1718980687273216, 0.632863, 0, 0, 0, 0, 0, 0, 0, 0, 0, 0, 0, 0, 0.61486, 0.0120848, -0.227135, -0.316136, 0.999538, -0.00652851, -0.00578646, -0.0291018, -0.00156987, 0.0149213, -0.000256115, 0.0010557, -0.00361515, -0.0050743, -0.0127155, -0.0119478, -0.0581381, 0, 0, 0, 0, 0, 0, 0, 0, 0, 0, 0, 0, 0, 0, 0, 0, 0, 0, 0, 0, 0, 0, 0, 0, 0, 0, 0, 0, 0, 0, 0, 0, 0, 0, 0, 0, 0, 0, 0, 0, 0, 0, 0, 0, 0, 0, 0, 0, 0, 0, 0, 0, 0, 0, 0, 0, 0, 0, 0, 0, 0, 0, 0, 0, 0, 0, 0, 0, 0, 0, 0, 
[2024-06-21 10:38:07.916477] [0x0000007fa8fd89a0] [LogDataTag] [0x000021f9] [257] 1718980687273216, 0.642845, 0, 0, 0, 0, 0, 0, 0, 0, 0, 0, 0, 0, 0.623741, 0.0120914, -0.227086, -0.316151, 0.999538, -0.00652608, -0.00578993, -0.0291311, -0.00158671, 0.0144302, -0.000509294, 0.00115326, -0.00219869, -0.0110306, -0.01271, -0.011955, -0.0581967, 0, 0, 0, 0, 0, 0, 0, 0, 0, 0, 0, 0, 0, 0, 0, 0, 0, 0, 0, 0, 0, 0, 0, 0, 0, 0, 0, 0, 0, 0, 0, 0, 0, 0, 0, 0, 0, 0, 0, 0, 0, 0, 0, 0, 0, 0, 0, 0, 0, 0, 0, 0, 0, 0, 0, 0, 0, 0, 0, 0, 0, 0, 0, 0, 0, 0, 0, 0, 0, 0, 0, 
[2024-06-21 10:38:07.926436] [0x0000007f9bffe9a0] [LogDataTag] [0x000021f9] [262] 1718980687273216, 0.652865, 0, 0, 0, 0, 0, 0, 0, 0, 0, 0, 0, 0, 0.632868, 0.0120999, -0.227056, -0.316166, 0.999535, -0.00653342, -0.00579563, -0.0292024, -0.00164961, 0.01417, -0.000464064, 0.00326377, -0.00177366, -0.0148486, -0.0127235, -0.0119677, -0.0583392, 0, 0, 0, 0, 0, 0, 0, 0, 0, 0, 0, 0, 0, 0, 0, 0, 0, 0, 0, 0, 0, 0, 0, 0, 0, 0, 0, 0, 0, 0, 0, 0, 0, 0, 0, 0, 0, 0, 0, 0, 0, 0, 0, 0, 0, 0, 0, 0, 0, 0, 0, 0, 0, 0, 0, 0, 0, 0, 0, 0, 0, 0, 0, 0, 0, 0, 0, 0, 0, 0, 0, 
[2024-06-21 10:38:07.936560] [0x0000007fa97d99a0] [LogDataTag] [0x000021f9] [266] 1718980687273216, 0.662852, 0, 0, 0, 0, 0, 0, 0, 0, 0, 0, 0, 0, 0.641842, 0.0121084, -0.227036, -0.316182, 0.999534, -0.00653853, -0.00580679, -0.0292563, -0.00160325, 0.0140542, -0.000612392, 0.00215839, -0.00435064, -0.0142478, -0.0127325, -0.011991, -0.0584468, 0, 0, 0, 0, 0, 0, 0, 0, 0, 0, 0, 0, 0, 0, 0, 0, 0, 0, 0, 0, 0, 0, 0, 0, 0, 0, 0, 0, 0, 0, 0, 0, 0, 0, 0, 0, 0, 0, 0, 0, 0, 0, 0, 0, 0, 0, 0, 0, 0, 0, 0, 0, 0, 0, 0, 0, 0, 0, 0, 0, 0, 0, 0, 0, 0, 0, 0, 0, 0, 0, 0, 
[2024-06-21 10:38:07.946486] [0x0000007faff34010] [LogDataTag] [0x000021f9] [271] 1718980687273216, 0.672846, 0, 0, 0, 0, 0, 0, 0, 0, 0, 0, 0, 0, 0.650868, 0.0121185, -0.227023, -0.3162, 0.999534, -0.00654249, -0.00580453, -0.0292458, -0.00135217, 0.0142955, -0.000961884, -0.00226747, 0.00310813, 0.00870245, -0.0127406, -0.0119866, -0.0584257, 0, 0, 0, 0, 0, 0, 0, 0, 0, 0, 0, 0, 0, 0, 0, 0, 0, 0, 0, 0, 0, 0, 0, 0, 0, 0, 0, 0, 0, 0, 0, 0, 0, 0, 0, 0, 0, 0, 0, 0, 0, 0, 0, 0, 0, 0, 0, 0, 0, 0, 0, 0, 0, 0, 0, 0, 0, 0, 0, 0, 0, 0, 0, 0, 0, 0, 0, 0, 0, 0, 0, 
[2024-06-21 10:38:07.956401] [0x0000007fa8fd89a0] [LogDataTag] [0x000021f9] [276] 1718980687273216, 0.682829, 0, 0, 0, 0, 0, 0, 0, 0, 0, 0, 0, 0, 0.661169, 0.0121276, -0.227004, -0.316217, 0.999535, -0.00654899, -0.00578559, -0.0292196, -0.00149626, 0.0143907, -0.000753979, -0.00391351, 0.00442084, 0.00408319, -0.012755, -0.0119488, -0.0583735, 0, 0, 0, 0, 0, 0, 0, 0, 0, 0, 0, 0, 0, 0, 0, 0, 0, 0, 0, 0, 0, 0, 0, 0, 0, 0, 0, 0, 0, 0, 0, 0, 0, 0, 0, 0, 0, 0, 0, 0, 0, 0, 0, 0, 0, 0, 0, 0, 0, 0, 0, 0, 0, 0, 0, 0, 0, 0, 0, 0, 0, 0, 0, 0, 0, 0, 0, 0, 0, 0, 0, 
[2024-06-21 10:38:07.966477] [0x0000007f9bffe9a0] [LogDataTag] [0x000021f9] [280] 1718980687273216, 0.69284, 0, 0, 0, 0, 0, 0, 0, 0, 0, 0, 0, 0, 0.682341, 0.0121461, -0.226994, -0.316249, 0.999538, -0.0065364, -0.00579232, -0.0291023, -0.00150196, 0.013482, -0.000625839, 0.00232509, 0.00268206, 0.0155507, -0.0127309, -0.01196, -0.058139, 0, 0, 0, 0, 0, 0, 0, 0, 0, 0, 0, 0, 0, 0, 0, 0, 0, 0, 0, 0, 0, 0, 0, 0, 0, 0, 0, 0, 0, 0, 0, 0, 0, 0, 0, 0, 0, 0, 0, 0, 0, 0, 0, 0, 0, 0, 0, 0, 0, 0, 0, 0, 0, 0, 0, 0, 0, 0, 0, 0, 0, 0, 0, 0, 0, 0, 0, 0, 0, 0, 0, 
[2024-06-21 10:38:07.976454] [0x0000007fa97d99a0] [LogDataTag] [0x000021f9] [285] 1718980687273216, 0.702868, 0, 0, 0, 0, 0, 0, 0, 0, 0, 0, 0, 0, 0.691303, 0.0121547, -0.227006, -0.316262, 0.999538, -0.00654207, -0.00579989, -0.0291171, -0.00157312, 0.0127986, -0.000653606, 0.00028124, -0.00312009, -0.00174291, -0.0127416, -0.0119757, -0.0581683, 0, 0, 0, 0, 0, 0, 0, 0, 0, 0, 0, 0, 0, 0, 0, 0, 0, 0, 0, 0, 0, 0, 0, 0, 0, 0, 0, 0, 0, 0, 0, 0, 0, 0, 0, 0, 0, 0, 0, 0, 0, 0, 0, 0, 0, 0, 0, 0, 0, 0, 0, 0, 0, 0, 0, 0, 0, 0, 0, 0, 0, 0, 0, 0, 0, 0, 0, 0, 0, 0, 0, 
[2024-06-21 10:38:07.986433] [0x0000007faff34010] [LogDataTag] [0x000021f9] [289] 1718980687273216, 0.712824, 0, 0, 0, 0, 0, 0, 0, 0, 0, 0, 0, 0, 0.7003, 0.0121634, -0.227028, -0.316275, 0.999537, -0.0065683, -0.00579752, -0.0291573, -0.00142607, 0.012312, -0.00076028, -0.00996647, -0.000974622, -0.0135856, -0.0127937, -0.011973, -0.0582484, 0, 0, 0, 0, 0, 0, 0, 0, 0, 0, 0, 0, 0, 0, 0, 0, 0, 0, 0, 0, 0, 0, 0, 0, 0, 0, 0, 0, 0, 0, 0, 0, 0, 0, 0, 0, 0, 0, 0, 0, 0, 0, 0, 0, 0, 0, 0, 0, 0, 0, 0, 0, 0, 0, 0, 0, 0, 0, 0, 0, 0, 0, 0, 0, 0, 0, 0, 0, 0, 0, 0, 
[2024-06-21 10:38:07.996478] [0x0000007fa8fd89a0] [LogDataTag] [0x000021f9] [294] 1718980687273216, 0.722861, 0, 0, 0, 0, 0, 0, 0, 0, 0, 0, 0, 0, 0.709221, 0.0121721, -0.227049, -0.316289, 0.999535, -0.00656231, -0.00578933, -0.0291996, -0.00131357, 0.0120401, -0.000801091, -0.00130941, -0.000963733, -0.0071729, -0.0127817, -0.0119568, -0.0583334, 0, 0, 0, 0, 0, 0, 0, 0, 0, 0, 0, 0, 0, 0, 0, 0, 0, 0, 0, 0, 0, 0, 0, 0, 0, 0, 0, 0, 0, 0, 0, 0, 0, 0, 0, 0, 0, 0, 0, 0, 0, 0, 0, 0, 0, 0, 0, 0, 0, 0, 0, 0, 0, 0, 0, 0, 0, 0, 0, 0, 0, 0, 0, 0, 0, 0, 0, 0, 0, 0, 0, 
[2024-06-21 10:38:08.006437] [0x0000007f9bffe9a0] [LogDataTag] [0x000021f9] [298] 1718980687273216, 0.732827, 0, 0, 0, 0, 0, 0, 0, 0, 0, 0, 0, 0, 0.718394, 0.0121809, -0.227078, -0.316303, 0.999534, -0.00658984, -0.00578762, -0.0292307, -0.00142372, 0.0117746, -0.000966016, -0.00725469, -0.000520352, -0.00326608, -0.0128365, -0.0119554, -0.0583953, 0, 0, 0, 0, 0, 0, 0, 0, 0, 0, 0, 0, 0, 0, 0, 0, 0, 0, 0, 0, 0, 0, 0, 0, 0, 0, 0, 0, 0, 0, 0, 0, 0, 0, 0, 0, 0, 0, 0, 0, 0, 0, 0, 0, 0, 0, 0, 0, 0, 0, 0, 0, 0, 0, 0, 0, 0, 0, 0, 0, 0, 0, 0, 0, 0, 0, 0, 0, 0, 0, 0, 
[2024-06-21 10:38:08.016459] [0x0000007fa97d99a0] [LogDataTag] [0x000021f9] [302] 1718980687273216, 0.742824, 0, 0, 0, 0, 0, 0, 0, 0, 0, 0, 0, 0, 0.72735, 0.0121884, -0.227113, -0.316319, 0.999534, -0.0065794, -0.00578277, -0.0292467, -0.00146892, 0.0117739, -0.00130675, 0.00233136, 0.00543993, -0.00560614, -0.0128157, -0.0119453, -0.0584274, 0, 0, 0, 0, 0, 0, 0, 0, 0, 0, 0, 0, 0, 0, 0, 0, 0, 0, 0, 0, 0, 0, 0, 0, 0, 0, 0, 0, 0, 0, 0, 0, 0, 0, 0, 0, 0, 0, 0, 0, 0, 0, 0, 0, 0, 0, 0, 0, 0, 0, 0, 0, 0, 0, 0, 0, 0, 0, 0, 0, 0, 0, 0, 0, 0, 0, 0, 0, 0, 0, 0, 
[2024-06-21 10:38:08.026449] [0x0000007faff34010] [LogDataTag] [0x000021f9] [307] 1718980687273216, 0.752832, 0, 0, 0, 0, 0, 0, 0, 0, 0, 0, 0, 0, 0.7364, 0.0121958, -0.227151, -0.316337, 0.999536, -0.00657593, -0.00579422, -0.0291691, -0.00144789, 0.0116417, -0.00157043, 0.00454097, 0.00138815, 0.0251187, -0.012809, -0.011967, -0.0582721, 0, 0, 0, 0, 0, 0, 0, 0, 0, 0, 0, 0, 0, 0, 0, 0, 0, 0, 0, 0, 0, 0, 0, 0, 0, 0, 0, 0, 0, 0, 0, 0, 0, 0, 0, 0, 0, 0, 0, 0, 0, 0, 0, 0, 0, 0, 0, 0, 0, 0, 0, 0, 0, 0, 0, 0, 0, 0, 0, 0, 0, 0, 0, 0, 0, 0, 0, 0, 0, 0, 0, 
[2024-06-21 10:38:08.036522] [0x0000007fa8fd89a0] [LogDataTag] [0x000021f9] [312] 1718980687273216, 0.762863, 0, 0, 0, 0, 0, 0, 0, 0, 0, 0, 0, 0, 0.745292, 0.0122031, -0.227196, -0.316357, 0.999537, -0.00658373, -0.00579084, -0.029136, -0.00141394, 0.0111451, -0.00171164, -0.0038431, 0.00285785, 0.0141396, -0.0128252, -0.0119603, -0.0582058, 0, 0, 0, 0, 0, 0, 0, 0, 0, 0, 0, 0, 0, 0, 0, 0, 0, 0, 0, 0, 0, 0, 0, 0, 0, 0, 0, 0, 0, 0, 0, 0, 0, 0, 0, 0, 0, 0, 0, 0, 0, 0, 0, 0, 0, 0, 0, 0, 0, 0, 0, 0, 0, 0, 0, 0, 0, 0, 0, 0, 0, 0, 0, 0, 0, 0, 0, 0, 0, 0, 0, 
[2024-06-21 10:38:08.046443] [0x0000007f9bffe9a0] [LogDataTag] [0x000021f9] [316] 1718980687273216, 0.772829, 0, 0, 0, 0, 0, 0, 0, 0, 0, 0, 0, 0, 0.754327, 0.0122099, -0.227248, -0.316376, 0.999538, -0.0065718, -0.00579704, -0.0291165, -0.00153519, 0.0105226, -0.00148044, -0.000333592, -0.0027323, 0.0031477, -0.0128012, -0.0119717, -0.0581669, 0, 0, 0, 0, 0, 0, 0, 0, 0, 0, 0, 0, 0, 0, 0, 0, 0, 0, 0, 0, 0, 0, 0, 0, 0, 0, 0, 0, 0, 0, 0, 0, 0, 0, 0, 0, 0, 0, 0, 0, 0, 0, 0, 0, 0, 0, 0, 0, 0, 0, 0, 0, 0, 0, 0, 0, 0, 0, 0, 0, 0, 0, 0, 0, 0, 0, 0, 0, 0, 0, 0, 
[2024-06-21 10:38:08.056404] [0x0000007fa97d99a0] [LogDataTag] [0x000021f9] [321] 1718980687273216, 0.782798, 0, 0, 0, 0, 0, 0, 0, 0, 0, 0, 0, 0, 0.763247, 0.0122156, -0.227309, -0.316392, 0.999537, -0.00657744, -0.00578948, -0.0291328, -0.00155689, 0.00986742, -0.00120905, 0.00256239, 0.00643546, -0.00202615, -0.0128127, -0.0119571, -0.0581995, 0, 0, 0, 0, 0, 0, 0, 0, 0, 0, 0, 0, 0, 0, 0, 0, 0, 0, 0, 0, 0, 0, 0, 0, 0, 0, 0, 0, 0, 0, 0, 0, 0, 0, 0, 0, 0, 0, 0, 0, 0, 0, 0, 0, 0, 0, 0, 0, 0, 0, 0, 0, 0, 0, 0, 0, 0, 0, 0, 0, 0, 0, 0, 0, 0, 0, 0, 0, 0, 0, 0, 
[2024-06-21 10:38:08.066465] [0x0000007fa97d99a0] [LogDataTag] [0x000021f9] [324] 1718980687273216, 0.792841, 0, 0, 0, 0, 0, 0, 0, 0, 0, 0, 0, 0, 0.763247, 0.0122156, -0.227309, -0.316392, 0.999537, -0.00657744, -0.00578948, -0.0291328, -0.00155689, 0.00986742, -0.00120905, 0.00256239, 0.00643546, -0.00202615, -0.0128127, -0.0119571, -0.0581995, 0, 0, 0, 0, 0, 0, 0, 0, 0, 0, 0, 0, 0, 0, 0, 0, 0, 0, 0, 0, 0, 0, 0, 0, 0, 0, 0, 0, 0, 0, 0, 0, 0, 0, 0, 0, 0, 0, 0, 0, 0, 0, 0, 0, 0, 0, 0, 0, 0, 0, 0, 0, 0, 0, 0, 0, 0, 0, 0, 0, 0, 0, 0, 0, 0, 0, 0, 0, 0, 0, 0, 
[2024-06-21 10:38:08.076508] [0x0000007fa97d99a0] [LogDataTag] [0x000021f9] [330] 1718980687273216, 0.802859, 0, 0, 0, 0, 0, 0, 0, 0, 0, 0, 0, 0, 0.763247, 0.0122156, -0.227309, -0.316392, 0.999537, -0.00657744, -0.00578948, -0.0291328, -0.00155689, 0.00986742, -0.00120905, 0.00256239, 0.00643546, -0.00202615, -0.0128127, -0.0119571, -0.0581995, 0, 0, 0, 0, 0, 0, 0, 0, 0, 0, 0, 0, 0, 0, 0, 0, 0, 0, 0, 0, 0, 0, 0, 0, 0, 0, 0, 0, 0, 0, 0, 0, 0, 0, 0, 0, 0, 0, 0, 0, 0, 0, 0, 0, 0, 0, 0, 0, 0, 0, 0, 0, 0, 0, 0, 0, 0, 0, 0, 0, 0, 0, 0, 0, 0, 0, 0, 0, 0, 0, 0, 
[2024-06-21 10:38:08.086430] [0x0000007faff34010] [LogDataTag] [0x000021f9] [335] 1718980687273216, 0.812815, 0, 0, 0, 0, 0, 0, 0, 0, 0, 0, 0, 0, 0.799264, 0.0122261, -0.227583, -0.31645, 0.999535, -0.00660284, -0.00578988, -0.0291877, -0.00205278, 0.00891049, -0.00131286, 0.00103045, -2.38377e-05, 0.00574881, -0.0128628, -0.0119601, -0.0583091, 0, 0, 0, 0, 0, 0, 0, 0, 0, 0, 0, 0, 0, 0, 0, 0, 0, 0, 0, 0, 0, 0, 0, 0, 0, 0, 0, 0, 0, 0, 0, 0, 0, 0, 0, 0, 0, 0, 0, 0, 0, 0, 0, 0, 0, 0, 0, 0, 0, 0, 0, 0, 0, 0, 0, 0, 0, 0, 0, 0, 0, 0, 0, 0, 0, 0, 0, 0, 0, 0, 0, 
[2024-06-21 10:38:08.096464] [0x0000007fa97d99a0] [LogDataTag] [0x000021f9] [339] 1718980687273216, 0.822819, 0, 0, 0, 0, 0, 0, 0, 0, 0, 0, 0, 0, 0.808117, 0.0122245, -0.227652, -0.316463, 0.999537, -0.00659541, -0.0057798, -0.0291514, -0.00214356, 0.00857758, -0.00119868, 0.00542767, 0.00613238, 0.00770698, -0.012849, -0.0119391, -0.0582366, 0, 0, 0, 0, 0, 0, 0, 0, 0, 0, 0, 0, 0, 0, 0, 0, 0, 0, 0, 0, 0, 0, 0, 0, 0, 0, 0, 0, 0, 0, 0, 0, 0, 0, 0, 0, 0, 0, 0, 0, 0, 0, 0, 0, 0, 0, 0, 0, 0, 0, 0, 0, 0, 0, 0, 0, 0, 0, 0, 0, 0, 0, 0, 0, 0, 0, 0, 0, 0, 0, 0, 
[2024-06-21 10:38:08.106425] [0x0000007f9bffe9a0] [LogDataTag] [0x000021f9] [343] 1718980687273216, 0.832816, 0, 0, 0, 0, 0, 0, 0, 0, 0, 0, 0, 0, 0.817352, 0.0122227, -0.227726, -0.316477, 0.999537, -0.00661538, -0.00578156, -0.0291381, -0.00208202, 0.00806712, -0.00134258, 0.00297503, -0.00251396, 0.000277903, -0.012889, -0.0119436, -0.0582098, 0, 0, 0, 0, 0, 0, 0, 0, 0, 0, 0, 0, 0, 0, 0, 0, 0, 0, 0, 0, 0, 0, 0, 0, 0, 0, 0, 0, 0, 0, 0, 0, 0, 0, 0, 0, 0, 0, 0, 0, 0, 0, 0, 0, 0, 0, 0, 0, 0, 0, 0, 0, 0, 0, 0, 0, 0, 0, 0, 0, 0, 0, 0, 0, 0, 0, 0, 0, 0, 0, 0, 
[2024-06-21 10:38:08.116399] [0x0000007fa8fd89a0] [LogDataTag] [0x000021f9] [348] 1718980687273216, 0.842835, 0, 0, 0, 0, 0, 0, 0, 0, 0, 0, 0, 0, 0.826219, 0.0122207, -0.227806, -0.316489, 0.999537, -0.00661826, -0.00578381, -0.0291295, -0.0020614, 0.00762466, -0.00103687, 0.000141798, -0.00275408, -0.00239633, -0.0128947, -0.0119481, -0.0581925, 0, 0, 0, 0, 0, 0, 0, 0, 0, 0, 0, 0, 0, 0, 0, 0, 0, 0, 0, 0, 0, 0, 0, 0, 0, 0, 0, 0, 0, 0, 0, 0, 0, 0, 0, 0, 0, 0, 0, 0, 0, 0, 0, 0, 0, 0, 0, 0, 0, 0, 0, 0, 0, 0, 0, 0, 0, 0, 0, 0, 0, 0, 0, 0, 0, 0, 0, 0, 0, 0, 0, 
[2024-06-21 10:38:08.126452] [0x0000007f9bffe9a0] [LogDataTag] [0x000021f9] [351] 1718980687273216, 0.852851, 0, 0, 0, 0, 0, 0, 0, 0, 0, 0, 0, 0, 0.835195, 0.0122192, -0.22789, -0.316498, 0.999536, -0.00661636, -0.00579746, -0.0291524, -0.00190767, 0.0072595, -0.000952547, 0.00635382, -0.000188322, -0.00147675, -0.0128898, -0.0119756, -0.058238, 0, 0, 0, 0, 0, 0, 0, 0, 0, 0, 0, 0, 0, 0, 0, 0, 0, 0, 0, 0, 0, 0, 0, 0, 0, 0, 0, 0, 0, 0, 0, 0, 0, 0, 0, 0, 0, 0, 0, 0, 0, 0, 0, 0, 0, 0, 0, 0, 0, 0, 0, 0, 0, 0, 0, 0, 0, 0, 0, 0, 0, 0, 0, 0, 0, 0, 0, 0, 0, 0, 0, 
[2024-06-21 10:38:08.136512] [0x0000007f9bffe9a0] [LogDataTag] [0x000021f9] [356] 1718980687273216, 0.86283, 0, 0, 0, 0, 0, 0, 0, 0, 0, 0, 0, 0, 0.844187, 0.0122167, -0.227993, -0.316506, 0.999533, -0.00662698, -0.00578783, -0.0292799, -0.00208637, 0.00430319, -0.000732025, 0.00357841, 0.00614004, -0.0435886, -0.0129101, -0.0119586, -0.0584933, 0, 0, 0, 0, 0, 0, 0, 0, 0, 0, 0, 0, 0, 0, 0, 0, 0, 0, 0, 0, 0, 0, 0, 0, 0, 0, 0, 0, 0, 0, 0, 0, 0, 0, 0, 0, 0, 0, 0, 0, 0, 0, 0, 0, 0, 0, 0, 0, 0, 0, 0, 0, 0, 0, 0, 0, 0, 0, 0, 0, 0, 0, 0, 0, 0, 0, 0, 0, 0, 0, 0, 
[2024-06-21 10:38:08.146404] [0x0000007faff34010] [LogDataTag] [0x000021f9] [361] 1718980687273216, 0.872824, 0, 0, 0, 0, 0, 0, 0, 0, 0, 0, 0, 0, 0.850106, 0.0122147, -0.228093, -0.316515, 0.999526, -0.00667177, -0.00581519, -0.0294799, -0.00173853, 0.00731628, -0.00110609, -0.00733102, -0.00988294, -0.0248907, -0.0129957, -0.0120185, -0.0588926, 0, 0, 0, 0, 0, 0, 0, 0, 0, 0, 0, 0, 0, 0, 0, 0, 0, 0, 0, 0, 0, 0, 0, 0, 0, 0, 0, 0, 0, 0, 0, 0, 0, 0, 0, 0, 0, 0, 0, 0, 0, 0, 0, 0, 0, 0, 0, 0, 0, 0, 0, 0, 0, 0, 0, 0, 0, 0, 0, 0, 0, 0, 0, 0, 0, 0, 0, 0, 0, 0, 0, 
[2024-06-21 10:38:08.156426] [0x0000007fa97d99a0] [LogDataTag] [0x000021f9] [365] 1718980687273216, 0.882815, 0, 0, 0, 0, 0, 0, 0, 0, 0, 0, 0, 0, 0.868223, 0.0122136, -0.22818, -0.316548, 0.999537, -0.00664295, -0.00582562, -0.0291171, -0.00161647, 0.0127993, -0.00251581, 0.00824561, 0.0024861, 0.0550384, -0.0129418, -0.012033, -0.0581669, 0, 0, 0, 0, 0, 0, 0, 0, 0, 0, 0, 0, 0, 0, 0, 0, 0, 0, 0, 0, 0, 0, 0, 0, 0, 0, 0, 0, 0, 0, 0, 0, 0, 0, 0, 0, 0, 0, 0, 0, 0, 0, 0, 0, 0, 0, 0, 0, 0, 0, 0, 0, 0, 0, 0, 0, 0, 0, 0, 0, 0, 0, 0, 0, 0, 0, 0, 0, 0, 0, 0, 
[2024-06-21 10:38:08.166420] [0x0000007fa8fd89a0] [LogDataTag] [0x000021f9] [370] 1718980687273216, 0.892815, 0, 0, 0, 0, 0, 0, 0, 0, 0, 0, 0, 0, 0.877259, 0.0122123, -0.228224, -0.316569, 0.999542, -0.00662021, -0.00580345, -0.0289689, -0.00209037, 0.010446, -0.00225109, 0.00775812, 0.00239368, 0.023498, -0.0128994, -0.0119854, -0.0578708, 0, 0, 0, 0, 0, 0, 0, 0, 0, 0, 0, 0, 0, 0, 0, 0, 0, 0, 0, 0, 0, 0, 0, 0, 0, 0, 0, 0, 0, 0, 0, 0, 0, 0, 0, 0, 0, 0, 0, 0, 0, 0, 0, 0, 0, 0, 0, 0, 0, 0, 0, 0, 0, 0, 0, 0, 0, 0, 0, 0, 0, 0, 0, 0, 0, 0, 0, 0, 0, 0, 0, 
[2024-06-21 10:38:08.176395] [0x0000007fa97d99a0] [LogDataTag] [0x000021f9] [374] 1718980687273216, 0.902786, 0, 0, 0, 0, 0, 0, 0, 0, 0, 0, 0, 0, 0.895243, 0.0122021, -0.228352, -0.316604, 0.999537, -0.00664017, -0.00577022, -0.0291352, -0.00236492, 0.00754214, -0.00114866, -0.0136906, -0.0038822, -0.0318624, -0.0129392, -0.0119223, -0.0582037, 0, 0, 0, 0, 0, 0, 0, 0, 0, 0, 0, 0, 0, 0, 0, 0, 0, 0, 0, 0, 0, 0, 0, 0, 0, 0, 0, 0, 0, 0, 0, 0, 0, 0, 0, 0, 0, 0, 0, 0, 0, 0, 0, 0, 0, 0, 0, 0, 0, 0, 0, 0, 0, 0, 0, 0, 0, 0, 0, 0, 0, 0, 0, 0, 0, 0, 0, 0, 0, 0, 0, 
[2024-06-21 10:38:08.186438] [0x0000007fa97d99a0] [LogDataTag] [0x000021f9] [379] 1718980687273216, 0.91283, 0, 0, 0, 0, 0, 0, 0, 0, 0, 0, 0, 0, 0.895243, 0.0122021, -0.228352, -0.316604, 0.999537, -0.00664017, -0.00577022, -0.0291352, -0.00236492, 0.00754214, -0.00114866, -0.0136906, -0.0038822, -0.0318624, -0.0129392, -0.0119223, -0.0582037, 0, 0, 0, 0, 0, 0, 0, 0, 0, 0, 0, 0, 0, 0, 0, 0, 0, 0, 0, 0, 0, 0, 0, 0, 0, 0, 0, 0, 0, 0, 0, 0, 0, 0, 0, 0, 0, 0, 0, 0, 0, 0, 0, 0, 0, 0, 0, 0, 0, 0, 0, 0, 0, 0, 0, 0, 0, 0, 0, 0, 0, 0, 0, 0, 0, 0, 0, 0, 0, 0, 0, 
[2024-06-21 10:38:08.196446] [0x0000007f9bffe9a0] [LogDataTag] [0x000021f9] [383] 1718980687273216, 0.922828, 0, 0, 0, 0, 0, 0, 0, 0, 0, 0, 0, 0, 0.904111, 0.0121919, -0.228417, -0.316609, 0.999531, -0.00666666, -0.00581348, -0.0293074, -0.00260334, 0.00886383, -0.000441047, -0.00595581, -0.0109231, -0.0335818, -0.0129876, -0.0120126, -0.0585474, 0, 0, 0, 0, 0, 0, 0, 0, 0, 0, 0, 0, 0, 0, 0, 0, 0, 0, 0, 0, 0, 0, 0, 0, 0, 0, 0, 0, 0, 0, 0, 0, 0, 0, 0, 0, 0, 0, 0, 0, 0, 0, 0, 0, 0, 0, 0, 0, 0, 0, 0, 0, 0, 0, 0, 0, 0, 0, 0, 0, 0, 0, 0, 0, 0, 0, 0, 0, 0, 0, 0, 
[2024-06-21 10:38:08.206423] [0x0000007fa8fd89a0] [LogDataTag] [0x000021f9] [387] 1718980687273216, 0.932812, 0, 0, 0, 0, 0, 0, 0, 0, 0, 0, 0, 0, 0.913291, 0.0121827, -0.228465, -0.316613, 0.999529, -0.00667581, -0.00583339, -0.0293815, -0.00243208, 0.0113372, -0.00115829, 0.000193524, 0.00321194, -0.0124681, -0.0130039, -0.0120539, -0.0586953, 0, 0, 0, 0, 0, 0, 0, 0, 0, 0, 0, 0, 0, 0, 0, 0, 0, 0, 0, 0, 0, 0, 0, 0, 0, 0, 0, 0, 0, 0, 0, 0, 0, 0, 0, 0, 0, 0, 0, 0, 0, 0, 0, 0, 0, 0, 0, 0, 0, 0, 0, 0, 0, 0, 0, 0, 0, 0, 0, 0, 0, 0, 0, 0, 0, 0, 0, 0, 0, 0, 0, 
[2024-06-21 10:38:08.216438] [0x0000007fa97d99a0] [LogDataTag] [0x000021f9] [392] 1718980687273216, 0.942821, 0, 0, 0, 0, 0, 0, 0, 0, 0, 0, 0, 0, 0.922286, 0.0121726, -0.228491, -0.31662, 0.99953, -0.00667045, -0.00583376, -0.0293345, -0.00282613, 0.0136311, -0.00122727, 0.00560797, -0.000434259, 0.0232184, -0.0129937, -0.0120537, -0.0586014, 0, 0, 0, 0, 0, 0, 0, 0, 0, 0, 0, 0, 0, 0, 0, 0, 0, 0, 0, 0, 0, 0, 0, 0, 0, 0, 0, 0, 0, 0, 0, 0, 0, 0, 0, 0, 0, 0, 0, 0, 0, 0, 0, 0, 0, 0, 0, 0, 0, 0, 0, 0, 0, 0, 0, 0, 0, 0, 0, 0, 0, 0, 0, 0, 0, 0, 0, 0, 0, 0, 0, 
[2024-06-21 10:38:08.226415] [0x0000007faff34010] [LogDataTag] [0x000021f9] [397] 1718980687273216, 0.952813, 0, 0, 0, 0, 0, 0, 0, 0, 0, 0, 0, 0, 0.931194, 0.0121586, -0.2285, -0.316626, 0.999535, -0.00666442, -0.00580001, -0.0291871, -0.00302934, 0.014308, -0.00123309, -0.00372821, 0.0100574, 0.0337917, -0.0129854, -0.0119839, -0.0583071, 0, 0, 0, 0, 0, 0, 0, 0, 0, 0, 0, 0, 0, 0, 0, 0, 0, 0, 0, 0, 0, 0, 0, 0, 0, 0, 0, 0, 0, 0, 0, 0, 0, 0, 0, 0, 0, 0, 0, 0, 0, 0, 0, 0, 0, 0, 0, 0, 0, 0, 0, 0, 0, 0, 0, 0, 0, 0, 0, 0, 0, 0, 0, 0, 0, 0, 0, 0, 0, 0, 0, 
[2024-06-21 10:38:08.236512] [0x0000007f9bffe9a0] [LogDataTag] [0x000021f9] [401] 1718980687273216, 0.96281, 0, 0, 0, 0, 0, 0, 0, 0, 0, 0, 0, 0, 0.940279, 0.0121442, -0.22851, -0.316634, 0.999539, -0.0066593, -0.00576719, -0.0290417, -0.00318933, 0.0138775, -0.00128265, 0.00293854, 0.0098187, 0.0350899, -0.0129788, -0.0119161, -0.0580165, 0, 0, 0, 0, 0, 0, 0, 0, 0, 0, 0, 0, 0, 0, 0, 0, 0, 0, 0, 0, 0, 0, 0, 0, 0, 0, 0, 0, 0, 0, 0, 0, 0, 0, 0, 0, 0, 0, 0, 0, 0, 0, 0, 0, 0, 0, 0, 0, 0, 0, 0, 0, 0, 0, 0, 0, 0, 0, 0, 0, 0, 0, 0, 0, 0, 0, 0, 0, 0, 0, 0, 
[2024-06-21 10:38:08.246413] [0x0000007fa8fd89a0] [LogDataTag] [0x000021f9] [406] 1718980687273216, 0.972805, 0, 0, 0, 0, 0, 0, 0, 0, 0, 0, 0, 0, 0.958259, 0.0121209, -0.228548, -0.316643, 0.999541, -0.0066938, -0.00577847, -0.028973, -0.00237182, 0.0103287, -0.00160951, -0.00393611, -0.00790607, -0.0270781, -0.0130479, -0.0119398, -0.0578785, 0, 0, 0, 0, 0, 0, 0, 0, 0, 0, 0, 0, 0, 0, 0, 0, 0, 0, 0, 0, 0, 0, 0, 0, 0, 0, 0, 0, 0, 0, 0, 0, 0, 0, 0, 0, 0, 0, 0, 0, 0, 0, 0, 0, 0, 0, 0, 0, 0, 0, 0, 0, 0, 0, 0, 0, 0, 0, 0, 0, 0, 0, 0, 0, 0, 0, 0, 0, 0, 0, 0, 
[2024-06-21 10:38:08.256442] [0x0000007fa97d99a0] [LogDataTag] [0x000021f9] [410] 1718980687273216, 0.982832, 0, 0, 0, 0, 0, 0, 0, 0, 0, 0, 0, 0, 0.967151, 0.0121089, -0.228583, -0.316649, 0.999536, -0.00668888, -0.00581854, -0.0291603, -0.00300189, 0.0103263, -0.00111205, 0.00545185, -0.0104525, -0.0463558, -0.0130335, -0.0120221, -0.0582528, 0, 0, 0, 0, 0, 0, 0, 0, 0, 0, 0, 0, 0, 0, 0, 0, 0, 0, 0, 0, 0, 0, 0, 0, 0, 0, 0, 0, 0, 0, 0, 0, 0, 0, 0, 0, 0, 0, 0, 0, 0, 0, 0, 0, 0, 0, 0, 0, 0, 0, 0, 0, 0, 0, 0, 0, 0, 0, 0, 0, 0, 0, 0, 0, 0, 0, 0, 0, 0, 0, 0, 
[2024-06-21 10:38:08.266418] [0x0000007faff34010] [LogDataTag] [0x000021f9] [415] 1718980687273216, 0.992845, 0, 0, 0, 0, 0, 0, 0, 0, 0, 0, 0, 0, 0.976099, 0.0120927, -0.228608, -0.316656, 0.99953, -0.00669576, -0.00585781, -0.0293347, -0.003042, 0.0113016, -0.00187223, -0.00635219, -0.00675548, -0.0381276, -0.0130429, -0.0121032, -0.0586012, 0, 0, 0, 0, 0, 0, 0, 0, 0, 0, 0, 0, 0, 0, 0, 0, 0, 0, 0, 0, 0, 0, 0, 0, 0, 0, 0, 0, 0, 0, 0, 0, 0, 0, 0, 0, 0, 0, 0, 0, 0, 0, 0, 0, 0, 0, 0, 0, 0, 0, 0, 0, 0, 0, 0, 0, 0, 0, 0, 0, 0, 0, 0, 0, 0, 0, 0, 0, 0, 0, 0, 
[2024-06-21 10:38:08.276430] [0x0000007f9bffe9a0] [LogDataTag] [0x000021f9] [419] 1718980687273216, 1.00282, 0, 0, 0, 0, 0, 0, 0, 0, 0, 0, 0, 0, 0.98523, 0.0120772, -0.228616, -0.316668, 0.999527, -0.00671203, -0.00584064, -0.029425, -0.00297018, 0.0140381, -0.00195582, -0.00381709, 8.1393e-05, -0.0158389, -0.0130753, -0.0120711, -0.0587819, 0, 0, 0, 0, 0, 0, 0, 0, 0, 0, 0, 0, 0, 0, 0, 0, 0, 0, 0, 0, 0, 0, 0, 0, 0, 0, 0, 0, 0, 0, 0, 0, 0, 0, 0, 0, 0, 0, 0, 0, 0, 0, 0, 0, 0, 0, 0, 0, 0, 0, 0, 0, 0, 0, 0, 0, 0, 0, 0, 0, 0, 0, 0, 0, 0, 0, 0, 0, 0, 0, 0, 
[2024-06-21 10:38:08.286459] [0x0000007fa8fd89a0] [LogDataTag] [0x000021f9] [424] 1718980687273216, 1.01284, 0, 0, 0, 0, 0, 0, 0, 0, 0, 0, 0, 0, 0.994274, 0.0120645, -0.228595, -0.316678, 0.999531, -0.00672059, -0.00584135, -0.0293169, -0.00258946, 0.0170705, -0.00203339, 0.000590165, -0.00585602, 0.0369481, -0.0130937, -0.0120716, -0.0585654, 0, 0, 0, 0, 0, 0, 0, 0, 0, 0, 0, 0, 0, 0, 0, 0, 0, 0, 0, 0, 0, 0, 0, 0, 0, 0, 0, 0, 0, 0, 0, 0, 0, 0, 0, 0, 0, 0, 0, 0, 0, 0, 0, 0, 0, 0, 0, 0, 0, 0, 0, 0, 0, 0, 0, 0, 0, 0, 0, 0, 0, 0, 0, 0, 0, 0, 0, 0, 0, 0, 0, 
[2024-06-21 10:38:08.296500] [0x0000007fa97d99a0] [LogDataTag] [0x000021f9] [428] 1718980687273216, 1.02286, 0, 0, 0, 0, 0, 0, 0, 0, 0, 0, 0, 0, 1.0031, 0.0120527, -0.228551, -0.316689, 0.999536, -0.00672917, -0.00583112, -0.0291421, -0.00255961, 0.017737, -0.00209723, -0.00334231, -0.00116678, 0.0406048, -0.0131136, -0.0120493, -0.0582157, 0, 0, 0, 0, 0, 0, 0, 0, 0, 0, 0, 0, 0, 0, 0, 0, 0, 0, 0, 0, 0, 0, 0, 0, 0, 0, 0, 0, 0, 0, 0, 0, 0, 0, 0, 0, 0, 0, 0, 0, 0, 0, 0, 0, 0, 0, 0, 0, 0, 0, 0, 0, 0, 0, 0, 0, 0, 0, 0, 0, 0, 0, 0, 0, 0, 0, 0, 0, 0, 0, 0, 
[2024-06-21 10:38:08.306468] [0x0000007faff34010] [LogDataTag] [0x000021f9] [433] 1718980687273216, 1.03287, 0, 0, 0, 0, 0, 0, 0, 0, 0, 0, 0, 0, 1.01371, 0.0120424, -0.228511, -0.316697, 0.999541, -0.0067053, -0.00582471, -0.0289647, -0.00239141, 0.0161113, -0.00149065, 0.00419834, -0.000383461, 0.0347935, -0.0130683, -0.0120328, -0.0578612, 0, 0, 0, 0, 0, 0, 0, 0, 0, 0, 0, 0, 0, 0, 0, 0, 0, 0, 0, 0, 0, 0, 0, 0, 0, 0, 0, 0, 0, 0, 0, 0, 0, 0, 0, 0, 0, 0, 0, 0, 0, 0, 0, 0, 0, 0, 0, 0, 0, 0, 0, 0, 0, 0, 0, 0, 0, 0, 0, 0, 0, 0, 0, 0, 0, 0, 0, 0, 0, 0, 0, 
[2024-06-21 10:38:08.316455] [0x0000007f9bffe9a0] [LogDataTag] [0x000021f9] [437] 1718980687273216, 1.04286, 0, 0, 0, 0, 0, 0, 0, 0, 0, 0, 0, 0, 1.02124, 0.0120339, -0.228492, -0.316702, 0.999541, -0.00670786, -0.00582535, -0.0289502, -0.00262878, 0.014025, -0.00144198, -0.00493507, -0.000773813, -0.00551171, -0.0130736, -0.012034, -0.0578322, 0, 0, 0, 0, 0, 0, 0, 0, 0, 0, 0, 0, 0, 0, 0, 0, 0, 0, 0, 0, 0, 0, 0, 0, 0, 0, 0, 0, 0, 0, 0, 0, 0, 0, 0, 0, 0, 0, 0, 0, 0, 0, 0, 0, 0, 0, 0, 0, 0, 0, 0, 0, 0, 0, 0, 0, 0, 0, 0, 0, 0, 0, 0, 0, 0, 0, 0, 0, 0, 0, 0, 
[2024-06-21 10:38:08.326491] [0x0000007fa8fd89a0] [LogDataTag] [0x000021f9] [441] 1718980687273216, 1.05286, 0, 0, 0, 0, 0, 0, 0, 0, 0, 0, 0, 0, 1.03162, 0.0120216, -0.22848, -0.316706, 0.999538, -0.00671444, -0.00582886, -0.0290491, -0.00275278, 0.0130731, -0.00106731, 0.00230347, 0.00329056, -0.0331498, -0.0130854, -0.0120427, -0.0580299, 0, 0, 0, 0, 0, 0, 0, 0, 0, 0, 0, 0, 0, 0, 0, 0, 0, 0, 0, 0, 0, 0, 0, 0, 0, 0, 0, 0, 0, 0, 0, 0, 0, 0, 0, 0, 0, 0, 0, 0, 0, 0, 0, 0, 0, 0, 0, 0, 0, 0, 0, 0, 0, 0, 0, 0, 0, 0, 0, 0, 0, 0, 0, 0, 0, 0, 0, 0, 0, 0, 0, 
[2024-06-21 10:38:08.336617] [0x0000007fa97d99a0] [LogDataTag] [0x000021f9] [445] 1718980687273216, 1.06286, 0, 0, 0, 0, 0, 0, 0, 0, 0, 0, 0, 0, 1.04354, 0.0120088, -0.228467, -0.316706, 0.999533, -0.00676163, -0.00586443, -0.0292188, -0.00267859, 0.0132256, -0.000934209, -0.00762561, -0.0152638, -0.0364687, -0.0131756, -0.0121188, -0.0583683, 0, 0, 0, 0, 0, 0, 0, 0, 0, 0, 0, 0, 0, 0, 0, 0, 0, 0, 0, 0, 0, 0, 0, 0, 0, 0, 0, 0, 0, 0, 0, 0, 0, 0, 0, 0, 0, 0, 0, 0, 0, 0, 0, 0, 0, 0, 0, 0, 0, 0, 0, 0, 0, 0, 0, 0, 0, 0, 0, 0, 0, 0, 0, 0, 0, 0, 0, 0, 0, 0, 0, 
[2024-06-21 10:38:08.346419] [0x0000007faff34010] [LogDataTag] [0x000021f9] [450] 1718980687273216, 1.07285, 0, 0, 0, 0, 0, 0, 0, 0, 0, 0, 0, 0, 1.05269, 0.0119967, -0.22844, -0.316706, 0.999529, -0.00676087, -0.00586979, -0.0293429, -0.00269175, 0.0155387, -0.00105369, 0.00774795, -0.00360206, -0.020924, -0.0131722, -0.0121311, -0.0586167, 0, 0, 0, 0, 0, 0, 0, 0, 0, 0, 0, 0, 0, 0, 0, 0, 0, 0, 0, 0, 0, 0, 0, 0, 0, 0, 0, 0, 0, 0, 0, 0, 0, 0, 0, 0, 0, 0, 0, 0, 0, 0, 0, 0, 0, 0, 0, 0, 0, 0, 0, 0, 0, 0, 0, 0, 0, 0, 0, 0, 0, 0, 0, 0, 0, 0, 0, 0, 0, 0, 0, 
[2024-06-21 10:38:08.356441] [0x0000007f9bffe9a0] [LogDataTag] [0x000021f9] [454] 1718980687273216, 1.08281, 0, 0, 0, 0, 0, 0, 0, 0, 0, 0, 0, 0, 1.06154, 0.0119836, -0.228386, -0.31671, 0.99953, -0.00672858, -0.00586708, -0.0293304, -0.0026738, 0.0178042, -0.00164305, 0.00980727, 0.00571979, 0.00836451, -0.013108, -0.0121236, -0.0585921, 0, 0, 0, 0, 0, 0, 0, 0, 0, 0, 0, 0, 0, 0, 0, 0, 0, 0, 0, 0, 0, 0, 0, 0, 0, 0, 0, 0, 0, 0, 0, 0, 0, 0, 0, 0, 0, 0, 0, 0, 0, 0, 0, 0, 0, 0, 0, 0, 0, 0, 0, 0, 0, 0, 0, 0, 0, 0, 0, 0, 0, 0, 0, 0, 0, 0, 0, 0, 0, 0, 0, 
[2024-06-21 10:38:08.366551] [0x0000007fa8fd89a0] [LogDataTag] [0x000021f9] [459] 1718980687273216, 1.09293, 0, 0, 0, 0, 0, 0, 0, 0, 0, 0, 0, 0, 1.07069, 0.0119714, -0.228316, -0.31672, 0.999533, -0.00672918, -0.00586649, -0.0292306, -0.00293584, 0.0187166, -0.00228952, -0.00545468, 0.00619971, 0.0136349, -0.0131687, -0.0119883, -0.0579814, 0, 0, 0, 0, 0, 0, 0, 0, 0, 0, 0, 0, 0, 0, 0, 0, 0, 0, 0, 0, 0, 0, 0, 0, 0, 0, 0, 0, 0, 0, 0, 0, 0, 0, 0, 0, 0, 0, 0, 0, 0, 0, 0, 0, 0, 0, 0, 0, 0, 0, 0, 0, 0, 0, 0, 0, 0, 0, 0, 0, 0, 0, 0, 0, 0, 0, 0, 0, 0, 0, 0, 
[2024-06-21 10:38:08.376412] [0x0000007fa97d99a0] [LogDataTag] [0x000021f9] [464] 1718980687273216, 1.10284, 0, 0, 0, 0, 0, 0, 0, 0, 0, 0, 0, 0, 1.09772, 0.0119246, -0.228075, -0.316753, 0.999538, -0.00674472, -0.00582509, -0.0290443, -0.00288413, 0.017219, -0.00166202, -0.00242543, -0.00427592, -0.0106243, -0.0131462, -0.0120369, -0.0580199, 0, 0, 0, 0, 0, 0, 0, 0, 0, 0, 0, 0, 0, 0, 0, 0, 0, 0, 0, 0, 0, 0, 0, 0, 0, 0, 0, 0, 0, 0, 0, 0, 0, 0, 0, 0, 0, 0, 0, 0, 0, 0, 0, 0, 0, 0, 0, 0, 0, 0, 0, 0, 0, 0, 0, 0, 0, 0, 0, 0, 0, 0, 0, 0, 0, 0, 0, 0, 0, 0, 0, 
[2024-06-21 10:38:08.386531] [0x0000007f9bffe9a0] [LogDataTag] [0x000021f9] [469] 1718980687273216, 1.11295, 0, 0, 0, 0, 0, 0, 0, 0, 0, 0, 0, 0, 1.10674, 0.0119115, -0.228016, -0.316755, 0.999535, -0.00674468, -0.00583794, -0.029158, -0.00301072, 0.0166901, -0.00152422, -0.00254041, 0.00172106, -0.028498, -0.013144, -0.0120641, -0.0582472, 0, 0, 0, 0, 0, 0, 0, 0, 0, 0, 0, 0, 0, 0, 0, 0, 0, 0, 0, 0, 0, 0, 0, 0, 0, 0, 0, 0, 0, 0, 0, 0, 0, 0, 0, 0, 0, 0, 0, 0, 0, 0, 0, 0, 0, 0, 0, 0, 0, 0, 0, 0, 0, 0, 0, 0, 0, 0, 0, 0, 0, 0, 0, 0, 0, 0, 0, 0, 0, 0, 0, 
[2024-06-21 10:38:08.396443] [0x0000007f9bffe9a0] [LogDataTag] [0x000021f9] [473] 1718980687273216, 1.12284, 0, 0, 0, 0, 0, 0, 0, 0, 0, 0, 0, 0, 1.10674, 0.0119115, -0.228016, -0.316755, 0.999535, -0.00674468, -0.00583794, -0.029158, -0.00301072, 0.0166901, -0.00152422, -0.00254041, 0.00172106, -0.028498, -0.013144, -0.0120641, -0.0582472, 0, 0, 0, 0, 0, 0, 0, 0, 0, 0, 0, 0, 0, 0, 0, 0, 0, 0, 0, 0, 0, 0, 0, 0, 0, 0, 0, 0, 0, 0, 0, 0, 0, 0, 0, 0, 0, 0, 0, 0, 0, 0, 0, 0, 0, 0, 0, 0, 0, 0, 0, 0, 0, 0, 0, 0, 0, 0, 0, 0, 0, 0, 0, 0, 0, 0, 0, 0, 0, 0, 0, 
[2024-06-21 10:38:08.406473] [0x0000007fa8fd89a0] [LogDataTag] [0x000021f9] [478] 1718980687273216, 1.13285, 0, 0, 0, 0, 0, 0, 0, 0, 0, 0, 0, 0, 1.12465, 0.0118846, -0.227877, -0.316754, 0.99953, -0.00678856, -0.00584211, -0.0293057, -0.00308844, 0.01995, -0.0011214, -0.00816932, 0.00321895, -0.000213746, -0.0132297, -0.0120769, -0.0585423, 0, 0, 0, 0, 0, 0, 0, 0, 0, 0, 0, 0, 0, 0, 0, 0, 0, 0, 0, 0, 0, 0, 0, 0, 0, 0, 0, 0, 0, 0, 0, 0, 0, 0, 0, 0, 0, 0, 0, 0, 0, 0, 0, 0, 0, 0, 0, 0, 0, 0, 0, 0, 0, 0, 0, 0, 0, 0, 0, 0, 0, 0, 0, 0, 0, 0, 0, 0, 0, 0, 0, 
[2024-06-21 10:38:08.416453] [0x0000007fa8fd89a0] [LogDataTag] [0x000021f9] [482] 1718980687273216, 1.14284, 0, 0, 0, 0, 0, 0, 0, 0, 0, 0, 0, 0, 1.12465, 0.0118846, -0.227877, -0.316754, 0.99953, -0.00678856, -0.00584211, -0.0293057, -0.00308844, 0.01995, -0.0011214, -0.00816932, 0.00321895, -0.000213746, -0.0132297, -0.0120769, -0.0585423, 0, 0, 0, 0, 0, 0, 0, 0, 0, 0, 0, 0, 0, 0, 0, 0, 0, 0, 0, 0, 0, 0, 0, 0, 0, 0, 0, 0, 0, 0, 0, 0, 0, 0, 0, 0, 0, 0, 0, 0, 0, 0, 0, 0, 0, 0, 0, 0, 0, 0, 0, 0, 0, 0, 0, 0, 0, 0, 0, 0, 0, 0, 0, 0, 0, 0, 0, 0, 0, 0, 0, 
[2024-06-21 10:38:08.426544] [0x0000007fa97d99a0] [LogDataTag] [0x000021f9] [487] 1718980687273216, 1.153, 0, 0, 0, 0, 0, 0, 0, 0, 0, 0, 0, 0, 1.13362, 0.0118735, -0.227783, -0.316754, 0.999532, -0.00678877, -0.00582873, -0.0292589, -0.00298742, 0.0224201, -0.00163401, 0.00533104, 0.00312, 0.0168178, -0.0132314, -0.0120496, -0.0584487, 0, 0, 0, 0, 0, 0, 0, 0, 0, 0, 0, 0, 0, 0, 0, 0, 0, 0, 0, 0, 0, 0, 0, 0, 0, 0, 0, 0, 0, 0, 0, 0, 0, 0, 0, 0, 0, 0, 0, 0, 0, 0, 0, 0, 0, 0, 0, 0, 0, 0, 0, 0, 0, 0, 0, 0, 0, 0, 0, 0, 0, 0, 0, 0, 0, 0, 0, 0, 0, 0, 0, 
[2024-06-21 10:38:08.436571] [0x0000007fa8fd89a0] [LogDataTag] [0x000021f9] [491] 1718980687273216, 1.16286, 0, 0, 0, 0, 0, 0, 0, 0, 0, 0, 0, 0, 1.14264, 0.0118643, -0.227672, -0.316754, 0.999535, -0.00678885, -0.00580837, -0.0291609, -0.00291871, 0.0235043, -0.00122775, -0.000606287, 0.0019891, 0.0256321, -0.013234, -0.0120076, -0.058253, 0, 0, 0, 0, 0, 0, 0, 0, 0, 0, 0, 0, 0, 0, 0, 0, 0, 0, 0, 0, 0, 0, 0, 0, 0, 0, 0, 0, 0, 0, 0, 0, 0, 0, 0, 0, 0, 0, 0, 0, 0, 0, 0, 0, 0, 0, 0, 0, 0, 0, 0, 0, 0, 0, 0, 0, 0, 0, 0, 0, 0, 0, 0, 0, 0, 0, 0, 0, 0, 0, 0, 
[2024-06-21 10:38:08.446655] [0x0000007f9bffe9a0] [LogDataTag] [0x000021f9] [496] 1718980687273216, 1.17283, 0, 0, 0, 0, 0, 0, 0, 0, 0, 0, 0, 0, 1.15147, 0.0118548, -0.227555, -0.31675, 0.999538, -0.00678262, -0.00580914, -0.0290559, -0.00287682, 0.0228821, -0.0010756, 0.00233056, -0.0020915, 0.0234699, -0.0132227, -0.0120073, -0.0580428, 0, 0, 0, 0, 0, 0, 0, 0, 0, 0, 0, 0, 0, 0, 0, 0, 0, 0, 0, 0, 0, 0, 0, 0, 0, 0, 0, 0, 0, 0, 0, 0, 0, 0, 0, 0, 0, 0, 0, 0, 0, 0, 0, 0, 0, 0, 0, 0, 0, 0, 0, 0, 0, 0, 0, 0, 0, 0, 0, 0, 0, 0, 0, 0, 0, 0, 0, 0, 0, 0, 0, 
[2024-06-21 10:38:08.456433] [0x0000007faff34010] [LogDataTag] [0x000021f9] [500] 1718980687273216, 1.18284, 0, 0, 0, 0, 0, 0, 0, 0, 0, 0, 0, 0, 1.16064, 0.011845, -0.227448, -0.316748, 0.999539, -0.00677971, -0.00579132, -0.029023, -0.00324909, 0.0217612, -0.00123745, -0.000714642, 0.0077804, -0.000137453, -0.0132183, -0.0119711, -0.0579774, 0, 0, 0, 0, 0, 0, 0, 0, 0, 0, 0, 0, 0, 0, 0, 0, 0, 0, 0, 0, 0, 0, 0, 0, 0, 0, 0, 0, 0, 0, 0, 0, 0, 0, 0, 0, 0, 0, 0, 0, 0, 0, 0, 0, 0, 0, 0, 0, 0, 0, 0, 0, 0, 0, 0, 0, 0, 0, 0, 0, 0, 0, 0, 0, 0, 0, 0, 0, 0, 0, 0, 
[2024-06-21 10:38:08.466542] [0x0000007fa97d99a0] [LogDataTag] [0x000021f9] [505] 1718980687273216, 1.193, 0, 0, 0, 0, 0, 0, 0, 0, 0, 0, 0, 0, 1.17866, 0.0118212, -0.227245, -0.316748, 0.999535, -0.00680822, -0.00581332, -0.0291584, -0.00316365, 0.0213394, -0.00185135, -0.00204101, -0.00439394, -0.0218587, -0.0132724, -0.0120185, -0.0582476, 0, 0, 0, 0, 0, 0, 0, 0, 0, 0, 0, 0, 0, 0, 0, 0, 0, 0, 0, 0, 0, 0, 0, 0, 0, 0, 0, 0, 0, 0, 0, 0, 0, 0, 0, 0, 0, 0, 0, 0, 0, 0, 0, 0, 0, 0, 0, 0, 0, 0, 0, 0, 0, 0, 0, 0, 0, 0, 0, 0, 0, 0, 0, 0, 0, 0, 0, 0, 0, 0, 0, 
[2024-06-21 10:38:08.476493] [0x0000007fa8fd89a0] [LogDataTag] [0x000021f9] [509] 1718980687273216, 1.20286, 0, 0, 0, 0, 0, 0, 0, 0, 0, 0, 0, 0, 1.18473, 0.0118124, -0.227145, -0.316751, 0.999532, -0.00681242, -0.00580483, -0.0292459, -0.00291323, 0.022456, -0.00188213, -0.00154985, 0.00266429, -0.00644488, -0.0132803, -0.012003, -0.0584229, 0, 0, 0, 0, 0, 0, 0, 0, 0, 0, 0, 0, 0, 0, 0, 0, 0, 0, 0, 0, 0, 0, 0, 0, 0, 0, 0, 0, 0, 0, 0, 0, 0, 0, 0, 0, 0, 0, 0, 0, 0, 0, 0, 0, 0, 0, 0, 0, 0, 0, 0, 0, 0, 0, 0, 0, 0, 0, 0, 0, 0, 0, 0, 0, 0, 0, 0, 0, 0, 0, 0, 
[2024-06-21 10:38:08.486472] [0x0000007f9bffe9a0] [LogDataTag] [0x000021f9] [513] 1718980687273216, 1.21284, 0, 0, 0, 0, 0, 0, 0, 0, 0, 0, 0, 0, 1.19355, 0.0118037, -0.227029, -0.316757, 0.999532, -0.0068068, -0.00580292, -0.0292503, -0.00307108, 0.0237484, -0.00248428, 0.000394451, 0.00263959, 0.00183709, -0.0132691, -0.0119989, -0.0584316, 0, 0, 0, 0, 0, 0, 0, 0, 0, 0, 0, 0, 0, 0, 0, 0, 0, 0, 0, 0, 0, 0, 0, 0, 0, 0, 0, 0, 0, 0, 0, 0, 0, 0, 0, 0, 0, 0, 0, 0, 0, 0, 0, 0, 0, 0, 0, 0, 0, 0, 0, 0, 0, 0, 0, 0, 0, 0, 0, 0, 0, 0, 0, 0, 0, 0, 0, 0, 0, 0, 0, 
[2024-06-21 10:38:08.496438] [0x0000007faff34010] [LogDataTag] [0x000021f9] [518] 1718980687273216, 1.22283, 0, 0, 0, 0, 0, 0, 0, 0, 0, 0, 0, 0, 1.20271, 0.0117955, -0.226906, -0.316764, 0.999535, -0.00681697, -0.00581198, -0.0291585, -0.00306078, 0.0245517, -0.00223814, -0.0040085, -0.00561544, 0.0208653, -0.01329, -0.0120164, -0.0582478, 0, 0, 0, 0, 0, 0, 0, 0, 0, 0, 0, 0, 0, 0, 0, 0, 0, 0, 0, 0, 0, 0, 0, 0, 0, 0, 0, 0, 0, 0, 0, 0, 0, 0, 0, 0, 0, 0, 0, 0, 0, 0, 0, 0, 0, 0, 0, 0, 0, 0, 0, 0, 0, 0, 0, 0, 0, 0, 0, 0, 0, 0, 0, 0, 0, 0, 0, 0, 0, 0, 0, 
[2024-06-21 10:38:08.506600] [0x0000007fa97d99a0] [LogDataTag] [0x000021f9] [522] 1718980687273216, 1.23284, 0, 0, 0, 0, 0, 0, 0, 0, 0, 0, 0, 0, 1.21161, 0.0117885, -0.226786, -0.316769, 0.999537, -0.00684215, -0.00580247, -0.0290801, -0.0030741, 0.024601, -0.00249275, -0.00651487, 0.000808105, 0.0202157, -0.0133419, -0.0119978, -0.0580907, 0, 0, 0, 0, 0, 0, 0, 0, 0, 0, 0, 0, 0, 0, 0, 0, 0, 0, 0, 0, 0, 0, 0, 0, 0, 0, 0, 0, 0, 0, 0, 0, 0, 0, 0, 0, 0, 0, 0, 0, 0, 0, 0, 0, 0, 0, 0, 0, 0, 0, 0, 0, 0, 0, 0, 0, 0, 0, 0, 0, 0, 0, 0, 0, 0, 0, 0, 0, 0, 0, 0, 
[2024-06-21 10:38:08.516543] [0x0000007fa8fd89a0] [LogDataTag] [0x000021f9] [526] 1718980687273216, 1.24285, 0, 0, 0, 0, 0, 0, 0, 0, 0, 0, 0, 0, 1.22052, 0.0117795, -0.226661, -0.316775, 0.999538, -0.00683162, -0.00578826, -0.0290302, -0.00312569, 0.0244718, -0.00215118, 0.000121696, 0.0047361, 0.0103438, -0.0133222, -0.0119681, -0.0579912, 0, 0, 0, 0, 0, 0, 0, 0, 0, 0, 0, 0, 0, 0, 0, 0, 0, 0, 0, 0, 0, 0, 0, 0, 0, 0, 0, 0, 0, 0, 0, 0, 0, 0, 0, 0, 0, 0, 0, 0, 0, 0, 0, 0, 0, 0, 0, 0, 0, 0, 0, 0, 0, 0, 0, 0, 0, 0, 0, 0, 0, 0, 0, 0, 0, 0, 0, 0, 0, 0, 0, 
[2024-06-21 10:38:08.526418] [0x0000007f9bffe9a0] [LogDataTag] [0x000021f9] [531] 1718980687273216, 1.25284, 0, 0, 0, 0, 0, 0, 0, 0, 0, 0, 0, 0, 1.23861, 0.0117587, -0.226425, -0.316774, 0.999536, -0.00684608, -0.0058104, -0.0291142, -0.00326299, 0.023257, -0.00157349, -0.00803217, -0.000692051, -0.017792, -0.0133488, -0.0120143, -0.0581587, 0, 0, 0, 0, 0, 0, 0, 0, 0, 0, 0, 0, 0, 0, 0, 0, 0, 0, 0, 0, 0, 0, 0, 0, 0, 0, 0, 0, 0, 0, 0, 0, 0, 0, 0, 0, 0, 0, 0, 0, 0, 0, 0, 0, 0, 0, 0, 0, 0, 0, 0, 0, 0, 0, 0, 0, 0, 0, 0, 0, 0, 0, 0, 0, 0, 0, 0, 0, 0, 0, 0, 
[2024-06-21 10:38:08.536603] [0x0000007f9bffe9a0] [LogDataTag] [0x000021f9] [535] 1718980687273216, 1.26292, 0, 0, 0, 0, 0, 0, 0, 0, 0, 0, 0, 0, 1.23861, 0.0117587, -0.226425, -0.316774, 0.999536, -0.00684608, -0.0058104, -0.0291142, -0.00326299, 0.023257, -0.00157349, -0.00803217, -0.000692051, -0.017792, -0.0133488, -0.0120143, -0.0581587, 0, 0, 0, 0, 0, 0, 0, 0, 0, 0, 0, 0, 0, 0, 0, 0, 0, 0, 0, 0, 0, 0, 0, 0, 0, 0, 0, 0, 0, 0, 0, 0, 0, 0, 0, 0, 0, 0, 0, 0, 0, 0, 0, 0, 0, 0, 0, 0, 0, 0, 0, 0, 0, 0, 0, 0, 0, 0, 0, 0, 0, 0, 0, 0, 0, 0, 0, 0, 0, 0, 0, 
[2024-06-21 10:38:08.546479] [0x0000007fa8fd89a0] [LogDataTag] [0x000021f9] [539] 1718980687273216, 1.27285, 0, 0, 0, 0, 0, 0, 0, 0, 0, 0, 0, 0, 1.26549, 0.0117333, -0.226069, -0.316774, 0.999533, -0.00686063, -0.00580949, -0.0292074, -0.00328083, 0.0257487, -0.00174558, -0.00240568, 0.00846684, 0.0056481, -0.0133769, -0.0120146, -0.0583451, 0, 0, 0, 0, 0, 0, 0, 0, 0, 0, 0, 0, 0, 0, 0, 0, 0, 0, 0, 0, 0, 0, 0, 0, 0, 0, 0, 0, 0, 0, 0, 0, 0, 0, 0, 0, 0, 0, 0, 0, 0, 0, 0, 0, 0, 0, 0, 0, 0, 0, 0, 0, 0, 0, 0, 0, 0, 0, 0, 0, 0, 0, 0, 0, 0, 0, 0, 0, 0, 0, 0, 
[2024-06-21 10:38:08.556542] [0x0000007faff34010] [LogDataTag] [0x000021f9] [544] 1718980687273216, 1.28286, 0, 0, 0, 0, 0, 0, 0, 0, 0, 0, 0, 0, 1.27471, 0.0117261, -0.225939, -0.316775, 0.999535, -0.00685781, -0.00580362, -0.0291285, -0.00307022, 0.0265573, -0.00201041, 0.00242923, 0.00281456, 0.0201829, -0.0133725, -0.0120016, -0.0581873, 0, 0, 0, 0, 0, 0, 0, 0, 0, 0, 0, 0, 0, 0, 0, 0, 0, 0, 0, 0, 0, 0, 0, 0, 0, 0, 0, 0, 0, 0, 0, 0, 0, 0, 0, 0, 0, 0, 0, 0, 0, 0, 0, 0, 0, 0, 0, 0, 0, 0, 0, 0, 0, 0, 0, 0, 0, 0, 0, 0, 0, 0, 0, 0, 0, 0, 0, 0, 0, 0, 0, 
[2024-06-21 10:38:08.566468] [0x0000007fa97d99a0] [LogDataTag] [0x000021f9] [548] 1718980687273216, 1.29285, 0, 0, 0, 0, 0, 0, 0, 0, 0, 0, 0, 0, 1.28359, 0.0117217, -0.225815, -0.316778, 0.999537, -0.00683363, -0.0057947, -0.0290644, -0.00302588, 0.0262811, -0.00194807, 0.00564895, 0.00614068, 0.0105629, -0.0133255, -0.0119815, -0.0580595, 0, 0, 0, 0, 0, 0, 0, 0, 0, 0, 0, 0, 0, 0, 0, 0, 0, 0, 0, 0, 0, 0, 0, 0, 0, 0, 0, 0, 0, 0, 0, 0, 0, 0, 0, 0, 0, 0, 0, 0, 0, 0, 0, 0, 0, 0, 0, 0, 0, 0, 0, 0, 0, 0, 0, 0, 0, 0, 0, 0, 0, 0, 0, 0, 0, 0, 0, 0, 0, 0, 0, 
[2024-06-21 10:38:08.576491] [0x0000007f9bffe9a0] [LogDataTag] [0x000021f9] [552] 1718980687273216, 1.30286, 0, 0, 0, 0, 0, 0, 0, 0, 0, 0, 0, 0, 1.29259, 0.0117185, -0.225703, -0.316778, 0.999538, -0.00685403, -0.00579687, -0.0290252, -0.00311382, 0.0256322, -0.00170822, -0.00685378, -0.00136565, 0.0106535, -0.0133666, -0.0119865, -0.0579808, 0, 0, 0, 0, 0, 0, 0, 0, 0, 0, 0, 0, 0, 0, 0, 0, 0, 0, 0, 0, 0, 0, 0, 0, 0, 0, 0, 0, 0, 0, 0, 0, 0, 0, 0, 0, 0, 0, 0, 0, 0, 0, 0, 0, 0, 0, 0, 0, 0, 0, 0, 0, 0, 0, 0, 0, 0, 0, 0, 0, 0, 0, 0, 0, 0, 0, 0, 0, 0, 0, 0, 
[2024-06-21 10:38:08.586515] [0x0000007fa8fd89a0] [LogDataTag] [0x000021f9] [557] 1718980687273216, 1.31286, 0, 0, 0, 0, 0, 0, 0, 0, 0, 0, 0, 0, 1.30149, 0.0117129, -0.225592, -0.316778, 0.999538, -0.00684889, -0.00577531, -0.0290426, -0.00323755, 0.0248565, -0.00203379, 0.00498982, 0.00335473, -0.00674919, -0.0133573, -0.0119434, -0.0580159, 0, 0, 0, 0, 0, 0, 0, 0, 0, 0, 0, 0, 0, 0, 0, 0, 0, 0, 0, 0, 0, 0, 0, 0, 0, 0, 0, 0, 0, 0, 0, 0, 0, 0, 0, 0, 0, 0, 0, 0, 0, 0, 0, 0, 0, 0, 0, 0, 0, 0, 0, 0, 0, 0, 0, 0, 0, 0, 0, 0, 0, 0, 0, 0, 0, 0, 0, 0, 0, 0, 0, 
[2024-06-21 10:38:08.596512] [0x0000007faff34010] [LogDataTag] [0x000021f9] [561] 1718980687273216, 1.32286, 0, 0, 0, 0, 0, 0, 0, 0, 0, 0, 0, 0, 1.31045, 0.011706, -0.225481, -0.31678, 0.999536, -0.00685909, -0.00577057, -0.0291084, -0.00311917, 0.0246997, -0.00170247, -0.00107299, 0.00136415, -0.0119655, -0.0133772, -0.0119354, -0.0581475, 0, 0, 0, 0, 0, 0, 0, 0, 0, 0, 0, 0, 0, 0, 0, 0, 0, 0, 0, 0, 0, 0, 0, 0, 0, 0, 0, 0, 0, 0, 0, 0, 0, 0, 0, 0, 0, 0, 0, 0, 0, 0, 0, 0, 0, 0, 0, 0, 0, 0, 0, 0, 0, 0, 0, 0, 0, 0, 0, 0, 0, 0, 0, 0, 0, 0, 0, 0, 0, 0, 0, 
[2024-06-21 10:38:08.606406] [0x0000007fa97d99a0] [LogDataTag] [0x000021f9] [566] 1718980687273216, 1.33285, 0, 0, 0, 0, 0, 0, 0, 0, 0, 0, 0, 0, 1.31964, 0.0117024, -0.225381, -0.316779, 0.999534, -0.00685979, -0.00579235, -0.02919, -0.0029475, 0.0249684, -0.00179964, 0.00687903, -0.00256865, -0.0188073, -0.0133764, -0.0119801, -0.0583106, 0, 0, 0, 0, 0, 0, 0, 0, 0, 0, 0, 0, 0, 0, 0, 0, 0, 0, 0, 0, 0, 0, 0, 0, 0, 0, 0, 0, 0, 0, 0, 0, 0, 0, 0, 0, 0, 0, 0, 0, 0, 0, 0, 0, 0, 0, 0, 0, 0, 0, 0, 0, 0, 0, 0, 0, 0, 0, 0, 0, 0, 0, 0, 0, 0, 0, 0, 0, 0, 0, 0, 
[2024-06-21 10:38:08.616790] [0x0000007f9bffe9a0] [LogDataTag] [0x000021f9] [571] 1718980687273216, 1.34321, 0, 0, 0, 0, 0, 0, 0, 0, 0, 0, 0, 0, 1.32844, 0.0116983, -0.225271, -0.316779, 0.999533, -0.00685549, -0.00580855, -0.0292206, -0.00285962, 0.025766, -0.00147, -0.000574611, -0.00296149, -0.000213606, -0.0133665, -0.0120126, -0.0583716, 0, 0, 0, 0, 0, 0, 0, 0, 0, 0, 0, 0, 0, 0, 0, 0, 0, 0, 0, 0, 0, 0, 0, 0, 0, 0, 0, 0, 0, 0, 0, 0, 0, 0, 0, 0, 0, 0, 0, 0, 0, 0, 0, 0, 0, 0, 0, 0, 0, 0, 0, 0, 0, 0, 0, 0, 0, 0, 0, 0, 0, 0, 0, 0, 0, 0, 0, 0, 0, 0, 0, 
[2024-06-21 10:38:08.626445] [0x0000007fa8fd89a0] [LogDataTag] [0x000021f9] [575] 1718980687273216, 1.35285, 0, 0, 0, 0, 0, 0, 0, 0, 0, 0, 0, 0, 1.33759, 0.011698, -0.225164, -0.316775, 0.999534, -0.00686265, -0.00579482, -0.029193, -0.00253659, 0.0271005, -0.00116249, 0.00278133, 0.00320981, 0.00913687, -0.0133819, -0.0119852, -0.0583164, 0, 0, 0, 0, 0, 0, 0, 0, 0, 0, 0, 0, 0, 0, 0, 0, 0, 0, 0, 0, 0, 0, 0, 0, 0, 0, 0, 0, 0, 0, 0, 0, 0, 0, 0, 0, 0, 0, 0, 0, 0, 0, 0, 0, 0, 0, 0, 0, 0, 0, 0, 0, 0, 0, 0, 0, 0, 0, 0, 0, 0, 0, 0, 0, 0, 0, 0, 0, 0, 0, 0, 
[2024-06-21 10:38:08.636494] [0x0000007faff34010] [LogDataTag] [0x000021f9] [579] 1718980687273216, 1.36282, 0, 0, 0, 0, 0, 0, 0, 0, 0, 0, 0, 0, 1.34645, 0.011698, -0.225042, -0.316771, 0.999536, -0.00687522, -0.00579482, -0.0290994, -0.00259305, 0.027578, -0.00127489, -0.00392366, -0.00388902, 0.0246815, -0.0134082, -0.0119847, -0.058129, 0, 0, 0, 0, 0, 0, 0, 0, 0, 0, 0, 0, 0, 0, 0, 0, 0, 0, 0, 0, 0, 0, 0, 0, 0, 0, 0, 0, 0, 0, 0, 0, 0, 0, 0, 0, 0, 0, 0, 0, 0, 0, 0, 0, 0, 0, 0, 0, 0, 0, 0, 0, 0, 0, 0, 0, 0, 0, 0, 0, 0, 0, 0, 0, 0, 0, 0, 0, 0, 0, 0, 
[2024-06-21 10:38:08.646385] [0x0000007fa97d99a0] [LogDataTag] [0x000021f9] [584] 1718980687273216, 1.37283, 0, 0, 0, 0, 0, 0, 0, 0, 0, 0, 0, 0, 1.35563, 0.0117008, -0.22494, -0.316765, 0.999538, -0.0068704, -0.00578176, -0.0290396, -0.00263867, 0.0272132, -0.0013531, -0.000895332, 0.006453, 0.0106761, -0.0134, -0.0119575, -0.0580097, 0, 0, 0, 0, 0, 0, 0, 0, 0, 0, 0, 0, 0, 0, 0, 0, 0, 0, 0, 0, 0, 0, 0, 0, 0, 0, 0, 0, 0, 0, 0, 0, 0, 0, 0, 0, 0, 0, 0, 0, 0, 0, 0, 0, 0, 0, 0, 0, 0, 0, 0, 0, 0, 0, 0, 0, 0, 0, 0, 0, 0, 0, 0, 0, 0, 0, 0, 0, 0, 0, 0, 
[2024-06-21 10:38:08.657141] [0x0000007f9bffe9a0] [LogDataTag] [0x000021f9] [588] 1718980687273216, 1.38351, 0, 0, 0, 0, 0, 0, 0, 0, 0, 0, 0, 0, 1.3645, 0.0117005, -0.224836, -0.316761, 0.999538, -0.00687256, -0.00579321, -0.0290179, -0.00278057, 0.0264223, -0.00155751, -0.00256126, -0.000681486, -0.00204867, -0.0134039, -0.0119802, -0.057966, 0, 0, 0, 0, 0, 0, 0, 0, 0, 0, 0, 0, 0, 0, 0, 0, 0, 0, 0, 0, 0, 0, 0, 0, 0, 0, 0, 0, 0, 0, 0, 0, 0, 0, 0, 0, 0, 0, 0, 0, 0, 0, 0, 0, 0, 0, 0, 0, 0, 0, 0, 0, 0, 0, 0, 0, 0, 0, 0, 0, 0, 0, 0, 0, 0, 0, 0, 0, 0, 0, 0, 
[2024-06-21 10:38:08.666515] [0x0000007fa8fd89a0] [LogDataTag] [0x000021f9] [592] 1718980687273216, 1.3929, 0, 0, 0, 0, 0, 0, 0, 0, 0, 0, 0, 0, 1.37359, 0.0117009, -0.224753, -0.316757, 0.999537, -0.00687415, -0.0057823, -0.0290781, -0.00281626, 0.0257269, -0.00124075, -0.000174961, 0.00116638, -0.016508, -0.013407, -0.0119593, -0.0580866, 0, 0, 0, 0, 0, 0, 0, 0, 0, 0, 0, 0, 0, 0, 0, 0, 0, 0, 0, 0, 0, 0, 0, 0, 0, 0, 0, 0, 0, 0, 0, 0, 0, 0, 0, 0, 0, 0, 0, 0, 0, 0, 0, 0, 0, 0, 0, 0, 0, 0, 0, 0, 0, 0, 0, 0, 0, 0, 0, 0, 0, 0, 0, 0, 0, 0, 0, 0, 0, 0, 0, 
[2024-06-21 10:38:08.676431] [0x0000007faff34010] [LogDataTag] [0x000021f9] [597] 1718980687273216, 1.40282, 0, 0, 0, 0, 0, 0, 0, 0, 0, 0, 0, 0, 1.38261, 0.0117019, -0.224683, -0.316751, 0.999534, -0.006909, -0.00577426, -0.0291544, -0.00293668, 0.0257556, -0.00141239, -0.00466086, -0.000337965, -0.0197392, -0.0134762, -0.0119463, -0.0582388, 0, 0, 0, 0, 0, 0, 0, 0, 0, 0, 0, 0, 0, 0, 0, 0, 0, 0, 0, 0, 0, 0, 0, 0, 0, 0, 0, 0, 0, 0, 0, 0, 0, 0, 0, 0, 0, 0, 0, 0, 0, 0, 0, 0, 0, 0, 0, 0, 0, 0, 0, 0, 0, 0, 0, 0, 0, 0, 0, 0, 0, 0, 0, 0, 0, 0, 0, 0, 0, 0, 0, 
[2024-06-21 10:38:08.686503] [0x0000007fa97d99a0] [LogDataTag] [0x000021f9] [601] 1718980687273216, 1.41285, 0, 0, 0, 0, 0, 0, 0, 0, 0, 0, 0, 0, 1.39593, 0.0117014, -0.224602, -0.316746, 0.999532, -0.00689966, -0.00580725, -0.0292259, -0.00287283, 0.0264678, -0.00150947, 0.00609694, -0.00984263, -0.0090403, -0.0134548, -0.0120127, -0.0583817, 0, 0, 0, 0, 0, 0, 0, 0, 0, 0, 0, 0, 0, 0, 0, 0, 0, 0, 0, 0, 0, 0, 0, 0, 0, 0, 0, 0, 0, 0, 0, 0, 0, 0, 0, 0, 0, 0, 0, 0, 0, 0, 0, 0, 0, 0, 0, 0, 0, 0, 0, 0, 0, 0, 0, 0, 0, 0, 0, 0, 0, 0, 0, 0, 0, 0, 0, 0, 0, 0, 0, 
[2024-06-21 10:38:08.696481] [0x0000007fa97d99a0] [LogDataTag] [0x000021f9] [606] 1718980687273216, 1.42288, 0, 0, 0, 0, 0, 0, 0, 0, 0, 0, 0, 0, 1.40505, 0.0117024, -0.224528, -0.316742, 0.999532, -0.00691593, -0.00581154, -0.0292173, -0.00291251, 0.0268543, -0.00153209, -0.00295502, -0.000843534, 0.00711224, -0.0134872, -0.0120221, -0.0583642, 0, 0, 0, 0, 0, 0, 0, 0, 0, 0, 0, 0, 0, 0, 0, 0, 0, 0, 0, 0, 0, 0, 0, 0, 0, 0, 0, 0, 0, 0, 0, 0, 0, 0, 0, 0, 0, 0, 0, 0, 0, 0, 0, 0, 0, 0, 0, 0, 0, 0, 0, 0, 0, 0, 0, 0, 0, 0, 0, 0, 0, 0, 0, 0, 0, 0, 0, 0, 0, 0, 0, 
[2024-06-21 10:38:08.706448] [0x0000007f9bffe9a0] [LogDataTag] [0x000021f9] [610] 1718980687273216, 1.43288, 0, 0, 0, 0, 0, 0, 0, 0, 0, 0, 0, 0, 1.41409, 0.0117041, -0.224464, -0.31674, 0.999534, -0.00689422, -0.00581222, -0.0291535, -0.00296582, 0.0265422, -0.0017882, 0.0129757, -0.00540547, 0.0206769, -0.0134445, -0.0120213, -0.0582369, 0, 0, 0, 0, 0, 0, 0, 0, 0, 0, 0, 0, 0, 0, 0, 0, 0, 0, 0, 0, 0, 0, 0, 0, 0, 0, 0, 0, 0, 0, 0, 0, 0, 0, 0, 0, 0, 0, 0, 0, 0, 0, 0, 0, 0, 0, 0, 0, 0, 0, 0, 0, 0, 0, 0, 0, 0, 0, 0, 0, 0, 0, 0, 0, 0, 0, 0, 0, 0, 0, 0, 
[2024-06-21 10:38:08.716398] [0x0000007faff34010] [LogDataTag] [0x000021f9] [614] 1718980687273216, 1.44283, 0, 0, 0, 0, 0, 0, 0, 0, 0, 0, 0, 0, 1.42307, 0.0117058, -0.224413, -0.316737, 0.999536, -0.00692399, -0.00577999, -0.0290855, -0.00303803, 0.0260614, -0.00146246, -0.00766781, 0.0110562, 0.014756, -0.0135067, -0.0119577, -0.0581008, 0, 0, 0, 0, 0, 0, 0, 0, 0, 0, 0, 0, 0, 0, 0, 0, 0, 0, 0, 0, 0, 0, 0, 0, 0, 0, 0, 0, 0, 0, 0, 0, 0, 0, 0, 0, 0, 0, 0, 0, 0, 0, 0, 0, 0, 0, 0, 0, 0, 0, 0, 0, 0, 0, 0, 0, 0, 0, 0, 0, 0, 0, 0, 0, 0, 0, 0, 0, 0, 0, 0, 
[2024-06-21 10:38:08.726462] [0x0000007fa8fd89a0] [LogDataTag] [0x000021f9] [618] 1718980687273216, 1.45283, 0, 0, 0, 0, 0, 0, 0, 0, 0, 0, 0, 0, 1.43221, 0.011708, -0.224373, -0.316732, 0.999538, -0.00691667, -0.00578296, -0.0290434, -0.0029635, 0.025314, -0.00125546, -0.000553638, -0.000167101, 0.00458232, -0.0134924, -0.0119626, -0.0580165, 0, 0, 0, 0, 0, 0, 0, 0, 0, 0, 0, 0, 0, 0, 0, 0, 0, 0, 0, 0, 0, 0, 0, 0, 0, 0, 0, 0, 0, 0, 0, 0, 0, 0, 0, 0, 0, 0, 0, 0, 0, 0, 0, 0, 0, 0, 0, 0, 0, 0, 0, 0, 0, 0, 0, 0, 0, 0, 0, 0, 0, 0, 0, 0, 0, 0, 0, 0, 0, 0, 0, 
[2024-06-21 10:38:08.736839] [0x0000007fa97d99a0] [LogDataTag] [0x000021f9] [623] 1718980687273216, 1.46317, 0, 0, 0, 0, 0, 0, 0, 0, 0, 0, 0, 0, 1.44089, 0.0117092, -0.224333, -0.316724, 0.999537, -0.00691841, -0.00577682, -0.0290735, -0.00292446, 0.0245433, -0.000742724, -0.000993258, -0.000832323, -0.0109681, -0.0134959, -0.0119509, -0.0580769, 0, 0, 0, 0, 0, 0, 0, 0, 0, 0, 0, 0, 0, 0, 0, 0, 0, 0, 0, 0, 0, 0, 0, 0, 0, 0, 0, 0, 0, 0, 0, 0, 0, 0, 0, 0, 0, 0, 0, 0, 0, 0, 0, 0, 0, 0, 0, 0, 0, 0, 0, 0, 0, 0, 0, 0, 0, 0, 0, 0, 0, 0, 0, 0, 0, 0, 0, 0, 0, 0, 0, 
[2024-06-21 10:38:08.746458] [0x0000007f9bffe9a0] [LogDataTag] [0x000021f9] [627] 1718980687273216, 1.47284, 0, 0, 0, 0, 0, 0, 0, 0, 0, 0, 0, 0, 1.45891, 0.0117125, -0.224283, -0.316695, 0.999533, -0.00694926, -0.00579482, -0.0292048, -0.00298365, 0.0233851, -7.66511e-05, -0.00131424, -0.00624859, -0.00929213, -0.0135549, -0.0119904, -0.0583391, 0, 0, 0, 0, 0, 0, 0, 0, 0, 0, 0, 0, 0, 0, 0, 0, 0, 0, 0, 0, 0, 0, 0, 0, 0, 0, 0, 0, 0, 0, 0, 0, 0, 0, 0, 0, 0, 0, 0, 0, 0, 0, 0, 0, 0, 0, 0, 0, 0, 0, 0, 0, 0, 0, 0, 0, 0, 0, 0, 0, 0, 0, 0, 0, 0, 0, 0, 0, 0, 0, 0, 
[2024-06-21 10:38:08.756727] [0x0000007faff34010] [LogDataTag] [0x000021f9] [632] 1718980687273216, 1.48285, 0, 0, 0, 0, 0, 0, 0, 0, 0, 0, 0, 0, 1.46808, 0.0117147, -0.224269, -0.31668, 0.999532, -0.00695472, -0.00580056, -0.0292156, -0.00286436, 0.023333, -0.000312979, 0.00254087, 0.00193578, 0.00264713, -0.0135654, -0.0120024, -0.0583606, 0, 0, 0, 0, 0, 0, 0, 0, 0, 0, 0, 0, 0, 0, 0, 0, 0, 0, 0, 0, 0, 0, 0, 0, 0, 0, 0, 0, 0, 0, 0, 0, 0, 0, 0, 0, 0, 0, 0, 0, 0, 0, 0, 0, 0, 0, 0, 0, 0, 0, 0, 0, 0, 0, 0, 0, 0, 0, 0, 0, 0, 0, 0, 0, 0, 0, 0, 0, 0, 0, 0, 
[2024-06-21 10:38:08.766454] [0x0000007fa8fd89a0] [LogDataTag] [0x000021f9] [636] 1718980687273216, 1.49283, 0, 0, 0, 0, 0, 0, 0, 0, 0, 0, 0, 0, 1.47708, 0.0117178, -0.224263, -0.316667, 0.999533, -0.0069665, -0.00580037, -0.0291933, -0.00290615, 0.0231655, -0.000634812, 0.0053037, -0.000887686, 0.0113608, -0.0135892, -0.0120024, -0.0583157, 0, 0, 0, 0, 0, 0, 0, 0, 0, 0, 0, 0, 0, 0, 0, 0, 0, 0, 0, 0, 0, 0, 0, 0, 0, 0, 0, 0, 0, 0, 0, 0, 0, 0, 0, 0, 0, 0, 0, 0, 0, 0, 0, 0, 0, 0, 0, 0, 0, 0, 0, 0, 0, 0, 0, 0, 0, 0, 0, 0, 0, 0, 0, 0, 0, 0, 0, 0, 0, 0, 0, 
[2024-06-21 10:38:08.776403] [0x0000007fa97d99a0] [LogDataTag] [0x000021f9] [641] 1718980687273216, 1.50284, 0, 0, 0, 0, 0, 0, 0, 0, 0, 0, 0, 0, 1.48611, 0.0117221, -0.224269, -0.316654, 0.999534, -0.00698164, -0.00579121, -0.0291369, -0.00276027, 0.0225262, -0.000342799, 0.00272715, -0.00532473, 0.0143355, -0.0136207, -0.0119842, -0.0582028, 0, 0, 0, 0, 0, 0, 0, 0, 0, 0, 0, 0, 0, 0, 0, 0, 0, 0, 0, 0, 0, 0, 0, 0, 0, 0, 0, 0, 0, 0, 0, 0, 0, 0, 0, 0, 0, 0, 0, 0, 0, 0, 0, 0, 0, 0, 0, 0, 0, 0, 0, 0, 0, 0, 0, 0, 0, 0, 0, 0, 0, 0, 0, 0, 0, 0, 0, 0, 0, 0, 0, 
[2024-06-21 10:38:08.786448] [0x0000007f9bffe9a0] [LogDataTag] [0x000021f9] [645] 1718980687273216, 1.51285, 0, 0, 0, 0, 0, 0, 0, 0, 0, 0, 0, 0, 1.49485, 0.0117253, -0.224273, -0.316641, 0.999536, -0.00699454, -0.00577544, -0.0290773, -0.00283761, 0.0218071, -0.000506842, -0.00470137, -0.000704931, 0.00947757, -0.0136481, -0.0119526, -0.0580837, 0, 0, 0, 0, 0, 0, 0, 0, 0, 0, 0, 0, 0, 0, 0, 0, 0, 0, 0, 0, 0, 0, 0, 0, 0, 0, 0, 0, 0, 0, 0, 0, 0, 0, 0, 0, 0, 0, 0, 0, 0, 0, 0, 0, 0, 0, 0, 0, 0, 0, 0, 0, 0, 0, 0, 0, 0, 0, 0, 0, 0, 0, 0, 0, 0, 0, 0, 0, 0, 0, 0, 
[2024-06-21 10:38:08.796491] [0x0000007faff34010] [LogDataTag] [0x000021f9] [649] 1718980687273216, 1.52286, 0, 0, 0, 0, 0, 0, 0, 0, 0, 0, 0, 0, 1.50399, 0.0117288, -0.224292, -0.316627, 0.999537, -0.0069914, -0.00576177, -0.0290595, -0.00294009, 0.0209873, -0.000454291, -0.0025807, 0.0062839, -0.00653663, -0.0136429, -0.0119248, -0.0580482, 0, 0, 0, 0, 0, 0, 0, 0, 0, 0, 0, 0, 0, 0, 0, 0, 0, 0, 0, 0, 0, 0, 0, 0, 0, 0, 0, 0, 0, 0, 0, 0, 0, 0, 0, 0, 0, 0, 0, 0, 0, 0, 0, 0, 0, 0, 0, 0, 0, 0, 0, 0, 0, 0, 0, 0, 0, 0, 0, 0, 0, 0, 0, 0, 0, 0, 0, 0, 0, 0, 0, 
[2024-06-21 10:38:08.806451] [0x0000007fa8fd89a0] [LogDataTag] [0x000021f9] [654] 1718980687273216, 1.53285, 0, 0, 0, 0, 0, 0, 0, 0, 0, 0, 0, 0, 1.51302, 0.0117324, -0.224325, -0.316614, 0.999536, -0.00700103, -0.00577515, -0.029084, -0.0029649, 0.0202254, -0.000708944, 0.00168036, -0.0045763, -0.0117959, -0.013661, -0.0119525, -0.058097, 0, 0, 0, 0, 0, 0, 0, 0, 0, 0, 0, 0, 0, 0, 0, 0, 0, 0, 0, 0, 0, 0, 0, 0, 0, 0, 0, 0, 0, 0, 0, 0, 0, 0, 0, 0, 0, 0, 0, 0, 0, 0, 0, 0, 0, 0, 0, 0, 0, 0, 0, 0, 0, 0, 0, 0, 0, 0, 0, 0, 0, 0, 0, 0, 0, 0, 0, 0, 0, 0, 0, 
[2024-06-21 10:38:08.816423] [0x0000007fa97d99a0] [LogDataTag] [0x000021f9] [658] 1718980687273216, 1.54286, 0, 0, 0, 0, 0, 0, 0, 0, 0, 0, 0, 0, 1.52197, 0.0117354, -0.224356, -0.316604, 0.999534, -0.00702586, -0.00577174, -0.0291498, -0.00275132, 0.0196993, -0.000784605, -0.00573657, 0.00650081, -0.00859058, -0.0137101, -0.011948, -0.0582283, 0, 0, 0, 0, 0, 0, 0, 0, 0, 0, 0, 0, 0, 0, 0, 0, 0, 0, 0, 0, 0, 0, 0, 0, 0, 0, 0, 0, 0, 0, 0, 0, 0, 0, 0, 0, 0, 0, 0, 0, 0, 0, 0, 0, 0, 0, 0, 0, 0, 0, 0, 0, 0, 0, 0, 0, 0, 0, 0, 0, 0, 0, 0, 0, 0, 0, 0, 0, 0, 0, 0, 
[2024-06-21 10:38:08.826458] [0x0000007f9bffe9a0] [LogDataTag] [0x000021f9] [662] 1718980687273216, 1.55285, 0, 0, 0, 0, 0, 0, 0, 0, 0, 0, 0, 0, 1.53103, 0.0117384, -0.224397, -0.316592, 0.999532, -0.00702951, -0.00578623, -0.0291934, -0.00299218, 0.02058, -0.000475817, -0.000665923, -0.003959, -0.00737067, -0.013716, -0.0119778, -0.0583155, 0, 0, 0, 0, 0, 0, 0, 0, 0, 0, 0, 0, 0, 0, 0, 0, 0, 0, 0, 0, 0, 0, 0, 0, 0, 0, 0, 0, 0, 0, 0, 0, 0, 0, 0, 0, 0, 0, 0, 0, 0, 0, 0, 0, 0, 0, 0, 0, 0, 0, 0, 0, 0, 0, 0, 0, 0, 0, 0, 0, 0, 0, 0, 0, 0, 0, 0, 0, 0, 0, 0, 
[2024-06-21 10:38:08.836465] [0x0000007fa97d99a0] [LogDataTag] [0x000021f9] [667] 1718980687273216, 1.56279, 0, 0, 0, 0, 0, 0, 0, 0, 0, 0, 0, 0, 1.55799, 0.0117499, -0.22448, -0.316565, 0.999539, -0.00704802, -0.00578802, -0.0289662, -0.00279531, 0.020045, -0.000538784, 0.00154725, 0.00686727, 0.00701716, -0.0137557, -0.0119793, -0.0578606, 0, 0, 0, 0, 0, 0, 0, 0, 0, 0, 0, 0, 0, 0, 0, 0, 0, 0, 0, 0, 0, 0, 0, 0, 0, 0, 0, 0, 0, 0, 0, 0, 0, 0, 0, 0, 0, 0, 0, 0, 0, 0, 0, 0, 0, 0, 0, 0, 0, 0, 0, 0, 0, 0, 0, 0, 0, 0, 0, 0, 0, 0, 0, 0, 0, 0, 0, 0, 0, 0, 0, 
[2024-06-21 10:38:08.846581] [0x0000007fa97d99a0] [LogDataTag] [0x000021f9] [671] 1718980687273216, 1.57285, 0, 0, 0, 0, 0, 0, 0, 0, 0, 0, 0, 0, 1.55799, 0.0117499, -0.22448, -0.316565, 0.999539, -0.00704802, -0.00578802, -0.0289662, -0.00279531, 0.020045, -0.000538784, 0.00154725, 0.00686727, 0.00701716, -0.0137557, -0.0119793, -0.0578606, 0, 0, 0, 0, 0, 0, 0, 0, 0, 0, 0, 0, 0, 0, 0, 0, 0, 0, 0, 0, 0, 0, 0, 0, 0, 0, 0, 0, 0, 0, 0, 0, 0, 0, 0, 0, 0, 0, 0, 0, 0, 0, 0, 0, 0, 0, 0, 0, 0, 0, 0, 0, 0, 0, 0, 0, 0, 0, 0, 0, 0, 0, 0, 0, 0, 0, 0, 0, 0, 0, 0, 
[2024-06-21 10:38:08.856462] [0x0000007faff34010] [LogDataTag] [0x000021f9] [675] 1718980687273216, 1.58284, 0, 0, 0, 0, 0, 0, 0, 0, 0, 0, 0, 0, 1.567, 0.0117534, -0.224546, -0.316552, 0.999536, -0.00704228, -0.0057891, -0.0290494, -0.00304211, 0.0178325, -0.000340206, 0.000364092, -0.00249836, -0.0320781, -0.0137431, -0.0119823, -0.0580271, 0, 0, 0, 0, 0, 0, 0, 0, 0, 0, 0, 0, 0, 0, 0, 0, 0, 0, 0, 0, 0, 0, 0, 0, 0, 0, 0, 0, 0, 0, 0, 0, 0, 0, 0, 0, 0, 0, 0, 0, 0, 0, 0, 0, 0, 0, 0, 0, 0, 0, 0, 0, 0, 0, 0, 0, 0, 0, 0, 0, 0, 0, 0, 0, 0, 0, 0, 0, 0, 0, 0, 
[2024-06-21 10:38:08.866469] [0x0000007f9bffe9a0] [LogDataTag] [0x000021f9] [680] 1718980687273216, 1.59284, 0, 0, 0, 0, 0, 0, 0, 0, 0, 0, 0, 0, 1.57586, 0.0117541, -0.224612, -0.316537, 0.999531, -0.00706383, -0.00579348, -0.0292211, -0.00301962, 0.0180097, -2.0858e-05, -0.000155708, -0.00629923, -0.0395207, -0.0137839, -0.0119946, -0.0583703, 0, 0, 0, 0, 0, 0, 0, 0, 0, 0, 0, 0, 0, 0, 0, 0, 0, 0, 0, 0, 0, 0, 0, 0, 0, 0, 0, 0, 0, 0, 0, 0, 0, 0, 0, 0, 0, 0, 0, 0, 0, 0, 0, 0, 0, 0, 0, 0, 0, 0, 0, 0, 0, 0, 0, 0, 0, 0, 0, 0, 0, 0, 0, 0, 0, 0, 0, 0, 0, 0, 0, 
[2024-06-21 10:38:08.876472] [0x0000007fa8fd89a0] [LogDataTag] [0x000021f9] [684] 1718980687273216, 1.60285, 0, 0, 0, 0, 0, 0, 0, 0, 0, 0, 0, 0, 1.58502, 0.0117553, -0.224681, -0.316523, 0.999528, -0.00707858, -0.00580427, -0.0293328, -0.00314785, 0.0191849, -0.00020151, -0.00155415, -0.00206145, -0.0173349, -0.0138114, -0.0120186, -0.0585934, 0, 0, 0, 0, 0, 0, 0, 0, 0, 0, 0, 0, 0, 0, 0, 0, 0, 0, 0, 0, 0, 0, 0, 0, 0, 0, 0, 0, 0, 0, 0, 0, 0, 0, 0, 0, 0, 0, 0, 0, 0, 0, 0, 0, 0, 0, 0, 0, 0, 0, 0, 0, 0, 0, 0, 0, 0, 0, 0, 0, 0, 0, 0, 0, 0, 0, 0, 0, 0, 0, 0, 
[2024-06-21 10:38:08.886504] [0x0000007fa8fd89a0] [LogDataTag] [0x000021f9] [688] 1718980687273216, 1.61285, 0, 0, 0, 0, 0, 0, 0, 0, 0, 0, 0, 0, 1.59408, 0.0117579, -0.224739, -0.316507, 0.999528, -0.00709618, -0.00579146, -0.0293273, -0.00287177, 0.0215148, -0.000179743, 0.00329013, 0.0071009, 0.0103225, -0.0138474, -0.011994, -0.0585825, 0, 0, 0, 0, 0, 0, 0, 0, 0, 0, 0, 0, 0, 0, 0, 0, 0, 0, 0, 0, 0, 0, 0, 0, 0, 0, 0, 0, 0, 0, 0, 0, 0, 0, 0, 0, 0, 0, 0, 0, 0, 0, 0, 0, 0, 0, 0, 0, 0, 0, 0, 0, 0, 0, 0, 0, 0, 0, 0, 0, 0, 0, 0, 0, 0, 0, 0, 0, 0, 0, 0, 
[2024-06-21 10:38:08.896422] [0x0000007faff34010] [LogDataTag] [0x000021f9] [693] 1718980687273216, 1.62282, 0, 0, 0, 0, 0, 0, 0, 0, 0, 0, 0, 0, 1.60903, 0.0117615, -0.224815, -0.31648, 0.999537, -0.00707499, -0.0057751, -0.0290278, -0.00307926, 0.0213374, -0.000266569, 0.000276353, 0.000606665, 0.0247863, -0.0138096, -0.0119559, -0.0579836, 0, 0, 0, 0, 0, 0, 0, 0, 0, 0, 0, 0, 0, 0, 0, 0, 0, 0, 0, 0, 0, 0, 0, 0, 0, 0, 0, 0, 0, 0, 0, 0, 0, 0, 0, 0, 0, 0, 0, 0, 0, 0, 0, 0, 0, 0, 0, 0, 0, 0, 0, 0, 0, 0, 0, 0, 0, 0, 0, 0, 0, 0, 0, 0, 0, 0, 0, 0, 0, 0, 0, 
[2024-06-21 10:38:08.906486] [0x0000007f9bffe9a0] [LogDataTag] [0x000021f9] [697] 1718980687273216, 1.63285, 0, 0, 0, 0, 0, 0, 0, 0, 0, 0, 0, 0, 1.61802, 0.0117623, -0.224874, -0.316466, 0.999539, -0.0070795, -0.00577217, -0.0289558, -0.00323237, 0.0196826, -0.00013383, -0.0061707, -0.000369307, 0.015395, -0.0138196, -0.0119493, -0.0578394, 0, 0, 0, 0, 0, 0, 0, 0, 0, 0, 0, 0, 0, 0, 0, 0, 0, 0, 0, 0, 0, 0, 0, 0, 0, 0, 0, 0, 0, 0, 0, 0, 0, 0, 0, 0, 0, 0, 0, 0, 0, 0, 0, 0, 0, 0, 0, 0, 0, 0, 0, 0, 0, 0, 0, 0, 0, 0, 0, 0, 0, 0, 0, 0, 0, 0, 0, 0, 0, 0, 0, 
[2024-06-21 10:38:08.916495] [0x0000007f9bffe9a0] [LogDataTag] [0x000021f9] [702] 1718980687273216, 1.64286, 0, 0, 0, 0, 0, 0, 0, 0, 0, 0, 0, 0, 1.62706, 0.0117613, -0.224953, -0.316449, 0.999537, -0.00712222, -0.00579056, -0.0290247, -0.00332867, 0.0181363, 9.35983e-05, -0.00871328, -0.00406589, -0.0240383, -0.0139031, -0.0119895, -0.0579767, 0, 0, 0, 0, 0, 0, 0, 0, 0, 0, 0, 0, 0, 0, 0, 0, 0, 0, 0, 0, 0, 0, 0, 0, 0, 0, 0, 0, 0, 0, 0, 0, 0, 0, 0, 0, 0, 0, 0, 0, 0, 0, 0, 0, 0, 0, 0, 0, 0, 0, 0, 0, 0, 0, 0, 0, 0, 0, 0, 0, 0, 0, 0, 0, 0, 0, 0, 0, 0, 0, 0, 
[2024-06-21 10:38:08.926609] [0x0000007f9bffe9a0] [LogDataTag] [0x000021f9] [706] 1718980687273216, 1.65305, 0, 0, 0, 0, 0, 0, 0, 0, 0, 0, 0, 0, 1.63588, 0.0117603, -0.225031, -0.316433, 0.999533, -0.00713971, -0.0058094, -0.0291416, -0.003065, 0.018023, 0.000247595, -0.0027569, -0.00396436, -0.0329579, -0.0139356, -0.0120298, -0.0582102, 0, 0, 0, 0, 0, 0, 0, 0, 0, 0, 0, 0, 0, 0, 0, 0, 0, 0, 0, 0, 0, 0, 0, 0, 0, 0, 0, 0, 0, 0, 0, 0, 0, 0, 0, 0, 0, 0, 0, 0, 0, 0, 0, 0, 0, 0, 0, 0, 0, 0, 0, 0, 0, 0, 0, 0, 0, 0, 0, 0, 0, 0, 0, 0, 0, 0, 0, 0, 0, 0, 0, 
[2024-06-21 10:38:08.936550] [0x0000007fa8fd89a0] [LogDataTag] [0x000021f9] [711] 1718980687273216, 1.66287, 0, 0, 0, 0, 0, 0, 0, 0, 0, 0, 0, 0, 1.64495, 0.0117611, -0.225109, -0.316419, 0.999529, -0.00715353, -0.00582336, -0.0292651, -0.00310053, 0.0192969, -0.000542896, 0.00157144, -0.00138874, -0.0235896, -0.013961, -0.0120602, -0.0584569, 0, 0, 0, 0, 0, 0, 0, 0, 0, 0, 0, 0, 0, 0, 0, 0, 0, 0, 0, 0, 0, 0, 0, 0, 0, 0, 0, 0, 0, 0, 0, 0, 0, 0, 0, 0, 0, 0, 0, 0, 0, 0, 0, 0, 0, 0, 0, 0, 0, 0, 0, 0, 0, 0, 0, 0, 0, 0, 0, 0, 0, 0, 0, 0, 0, 0, 0, 0, 0, 0, 0, 
[2024-06-21 10:38:08.946442] [0x0000007faff34010] [LogDataTag] [0x000021f9] [715] 1718980687273216, 1.67283, 0, 0, 0, 0, 0, 0, 0, 0, 0, 0, 0, 0, 1.65384, 0.0117616, -0.225167, -0.316412, 0.999528, -0.00714787, -0.00584779, -0.0292862, -0.00278658, 0.0200982, -0.0015272, 0.00499108, 0.00126658, -0.0023045, -0.013948, -0.012109, -0.0584989, 0, 0, 0, 0, 0, 0, 0, 0, 0, 0, 0, 0, 0, 0, 0, 0, 0, 0, 0, 0, 0, 0, 0, 0, 0, 0, 0, 0, 0, 0, 0, 0, 0, 0, 0, 0, 0, 0, 0, 0, 0, 0, 0, 0, 0, 0, 0, 0, 0, 0, 0, 0, 0, 0, 0, 0, 0, 0, 0, 0, 0, 0, 0, 0, 0, 0, 0, 0, 0, 0, 0, 
[2024-06-21 10:38:08.956549] [0x0000007fa97d99a0] [LogDataTag] [0x000021f9] [720] 1718980687273216, 1.683, 0, 0, 0, 0, 0, 0, 0, 0, 0, 0, 0, 0, 1.66297, 0.0117649, -0.225224, -0.316413, 0.99953, -0.0071573, -0.00584034, -0.0292419, -0.00257751, 0.020636, -0.00165897, -0.00422664, -0.00538569, 0.0185257, -0.0139678, -0.0120941, -0.0584102, 0, 0, 0, 0, 0, 0, 0, 0, 0, 0, 0, 0, 0, 0, 0, 0, 0, 0, 0, 0, 0, 0, 0, 0, 0, 0, 0, 0, 0, 0, 0, 0, 0, 0, 0, 0, 0, 0, 0, 0, 0, 0, 0, 0, 0, 0, 0, 0, 0, 0, 0, 0, 0, 0, 0, 0, 0, 0, 0, 0, 0, 0, 0, 0, 0, 0, 0, 0, 0, 0, 0, 
[2024-06-21 10:38:08.967733] [0x0000007f9bffe9a0] [LogDataTag] [0x000021f9] [724] 1718980687273216, 1.69343, 0, 0, 0, 0, 0, 0, 0, 0, 0, 0, 0, 0, 1.67189, 0.0117688, -0.225266, -0.316416, 0.999532, -0.00715796, -0.00580152, -0.029161, -0.00239705, 0.0214238, -0.00163432, 0.00267086, 0.00525176, 0.0201191, -0.0139723, -0.0120154, -0.0582487, 0, 0, 0, 0, 0, 0, 0, 0, 0, 0, 0, 0, 0, 0, 0, 0, 0, 0, 0, 0, 0, 0, 0, 0, 0, 0, 0, 0, 0, 0, 0, 0, 0, 0, 0, 0, 0, 0, 0, 0, 0, 0, 0, 0, 0, 0, 0, 0, 0, 0, 0, 0, 0, 0, 0, 0, 0, 0, 0, 0, 0, 0, 0, 0, 0, 0, 0, 0, 0, 0, 0, 
[2024-06-21 10:38:08.976467] [0x0000007fa8fd89a0] [LogDataTag] [0x000021f9] [728] 1718980687273216, 1.70283, 0, 0, 0, 0, 0, 0, 0, 0, 0, 0, 0, 0, 1.68103, 0.0117755, -0.225314, -0.316417, 0.999535, -0.00716827, -0.00580072, -0.0290632, -0.0021717, 0.0207533, -0.00179561, 5.69011e-05, 0.00282954, 0.0157896, -0.0139942, -0.012013, -0.058053, 0, 0, 0, 0, 0, 0, 0, 0, 0, 0, 0, 0, 0, 0, 0, 0, 0, 0, 0, 0, 0, 0, 0, 0, 0, 0, 0, 0, 0, 0, 0, 0, 0, 0, 0, 0, 0, 0, 0, 0, 0, 0, 0, 0, 0, 0, 0, 0, 0, 0, 0, 0, 0, 0, 0, 0, 0, 0, 0, 0, 0, 0, 0, 0, 0, 0, 0, 0, 0, 0, 0, 
[2024-06-21 10:38:08.986471] [0x0000007faff34010] [LogDataTag] [0x000021f9] [733] 1718980687273216, 1.71285, 0, 0, 0, 0, 0, 0, 0, 0, 0, 0, 0, 0, 1.69885, 0.0117859, -0.225439, -0.316413, 0.999536, -0.00716457, -0.00579045, -0.0290465, -0.00279813, 0.0179233, -0.000542587, -0.00488366, 0.00045711, -0.0118605, -0.0139876, -0.011992, -0.0580198, 0, 0, 0, 0, 0, 0, 0, 0, 0, 0, 0, 0, 0, 0, 0, 0, 0, 0, 0, 0, 0, 0, 0, 0, 0, 0, 0, 0, 0, 0, 0, 0, 0, 0, 0, 0, 0, 0, 0, 0, 0, 0, 0, 0, 0, 0, 0, 0, 0, 0, 0, 0, 0, 0, 0, 0, 0, 0, 0, 0, 0, 0, 0, 0, 0, 0, 0, 0, 0, 0, 0, 
[2024-06-21 10:38:08.996476] [0x0000007fa97d99a0] [LogDataTag] [0x000021f9] [737] 1718980687273216, 1.72285, 0, 0, 0, 0, 0, 0, 0, 0, 0, 0, 0, 0, 1.70795, 0.0117863, -0.225501, -0.316407, 0.999532, -0.00719091, -0.00580036, -0.0291471, -0.00275724, 0.0175433, -0.000598074, -0.00106657, 0.0029118, -0.022059, -0.0140384, -0.0120148, -0.0582207, 0, 0, 0, 0, 0, 0, 0, 0, 0, 0, 0, 0, 0, 0, 0, 0, 0, 0, 0, 0, 0, 0, 0, 0, 0, 0, 0, 0, 0, 0, 0, 0, 0, 0, 0, 0, 0, 0, 0, 0, 0, 0, 0, 0, 0, 0, 0, 0, 0, 0, 0, 0, 0, 0, 0, 0, 0, 0, 0, 0, 0, 0, 0, 0, 0, 0, 0, 0, 0, 0, 0, 
[2024-06-21 10:38:09.006435] [0x0000007f9bffe9a0] [LogDataTag] [0x000021f9] [742] 1718980687273216, 1.73285, 0, 0, 0, 0, 0, 0, 0, 0, 0, 0, 0, 0, 1.71689, 0.0117857, -0.225555, -0.316401, 0.999529, -0.00721983, -0.00579479, -0.0292486, -0.00268202, 0.0181445, -0.000815125, -0.00333032, 0.00391147, -0.020375, -0.0140954, -0.0120068, -0.0584233, 0, 0, 0, 0, 0, 0, 0, 0, 0, 0, 0, 0, 0, 0, 0, 0, 0, 0, 0, 0, 0, 0, 0, 0, 0, 0, 0, 0, 0, 0, 0, 0, 0, 0, 0, 0, 0, 0, 0, 0, 0, 0, 0, 0, 0, 0, 0, 0, 0, 0, 0, 0, 0, 0, 0, 0, 0, 0, 0, 0, 0, 0, 0, 0, 0, 0, 0, 0, 0, 0, 0, 
[2024-06-21 10:38:09.016598] [0x0000007fa8fd89a0] [LogDataTag] [0x000021f9] [746] 1718980687273216, 1.74294, 0, 0, 0, 0, 0, 0, 0, 0, 0, 0, 0, 0, 1.72586, 0.0117847, -0.22559, -0.316398, 0.999529, -0.00722391, -0.0058015, -0.0292629, -0.00263237, 0.0193143, -0.000698761, -0.000559451, -0.00328086, 0.00149513, -0.014103, -0.0120206, -0.0584519, 0, 0, 0, 0, 0, 0, 0, 0, 0, 0, 0, 0, 0, 0, 0, 0, 0, 0, 0, 0, 0, 0, 0, 0, 0, 0, 0, 0, 0, 0, 0, 0, 0, 0, 0, 0, 0, 0, 0, 0, 0, 0, 0, 0, 0, 0, 0, 0, 0, 0, 0, 0, 0, 0, 0, 0, 0, 0, 0, 0, 0, 0, 0, 0, 0, 0, 0, 0, 0, 0, 0, 
[2024-06-21 10:38:09.026432] [0x0000007faff34010] [LogDataTag] [0x000021f9] [751] 1718980687273216, 1.75286, 0, 0, 0, 0, 0, 0, 0, 0, 0, 0, 0, 0, 1.73503, 0.0117858, -0.225627, -0.316396, 0.99953, -0.00724102, -0.00579904, -0.0292058, -0.00260451, 0.0206693, -0.00129417, -0.00165333, 0.00213712, 0.0150345, -0.014138, -0.0120159, -0.0583375, 0, 0, 0, 0, 0, 0, 0, 0, 0, 0, 0, 0, 0, 0, 0, 0, 0, 0, 0, 0, 0, 0, 0, 0, 0, 0, 0, 0, 0, 0, 0, 0, 0, 0, 0, 0, 0, 0, 0, 0, 0, 0, 0, 0, 0, 0, 0, 0, 0, 0, 0, 0, 0, 0, 0, 0, 0, 0, 0, 0, 0, 0, 0, 0, 0, 0, 0, 0, 0, 0, 0, 
[2024-06-21 10:38:09.036558] [0x0000007fa97d99a0] [LogDataTag] [0x000021f9] [755] 1718980687273216, 1.76286, 0, 0, 0, 0, 0, 0, 0, 0, 0, 0, 0, 0, 1.74555, 0.0117882, -0.225663, -0.3164, 0.999533, -0.00723765, -0.00579468, -0.0291132, -0.00263148, 0.0212115, -0.0016547, 0.00423655, 0.0013439, 0.0187708, -0.0141326, -0.0120057, -0.0581523, 0, 0, 0, 0, 0, 0, 0, 0, 0, 0, 0, 0, 0, 0, 0, 0, 0, 0, 0, 0, 0, 0, 0, 0, 0, 0, 0, 0, 0, 0, 0, 0, 0, 0, 0, 0, 0, 0, 0, 0, 0, 0, 0, 0, 0, 0, 0, 0, 0, 0, 0, 0, 0, 0, 0, 0, 0, 0, 0, 0, 0, 0, 0, 0, 0, 0, 0, 0, 0, 0, 0, 
[2024-06-21 10:38:09.046425] [0x0000007f9bffe9a0] [LogDataTag] [0x000021f9] [759] 1718980687273216, 1.77282, 0, 0, 0, 0, 0, 0, 0, 0, 0, 0, 0, 0, 1.75455, 0.0117911, -0.225705, -0.316405, 0.999535, -0.00725867, -0.00577466, -0.0290403, -0.0026687, 0.0203388, -0.00169432, -0.00716378, 0.00655389, 0.0107427, -0.0141767, -0.0119658, -0.0580065, 0, 0, 0, 0, 0, 0, 0, 0, 0, 0, 0, 0, 0, 0, 0, 0, 0, 0, 0, 0, 0, 0, 0, 0, 0, 0, 0, 0, 0, 0, 0, 0, 0, 0, 0, 0, 0, 0, 0, 0, 0, 0, 0, 0, 0, 0, 0, 0, 0, 0, 0, 0, 0, 0, 0, 0, 0, 0, 0, 0, 0, 0, 0, 0, 0, 0, 0, 0, 0, 0, 0, 
[2024-06-21 10:38:09.056529] [0x0000007fa8fd89a0] [LogDataTag] [0x000021f9] [764] 1718980687273216, 1.78284, 0, 0, 0, 0, 0, 0, 0, 0, 0, 0, 0, 0, 1.76347, 0.011795, -0.22576, -0.316411, 0.999536, -0.00727629, -0.00577481, -0.0290169, -0.00252449, 0.0194072, -0.00191724, 0.00229777, 0.00244915, 0.000108693, -0.0142122, -0.0119668, -0.0579593, 0, 0, 0, 0, 0, 0, 0, 0, 0, 0, 0, 0, 0, 0, 0, 0, 0, 0, 0, 0, 0, 0, 0, 0, 0, 0, 0, 0, 0, 0, 0, 0, 0, 0, 0, 0, 0, 0, 0, 0, 0, 0, 0, 0, 0, 0, 0, 0, 0, 0, 0, 0, 0, 0, 0, 0, 0, 0, 0, 0, 0, 0, 0, 0, 0, 0, 0, 0, 0, 0, 0, 
[2024-06-21 10:38:09.066395] [0x0000007faff34010] [LogDataTag] [0x000021f9] [769] 1718980687273216, 1.79282, 0, 0, 0, 0, 0, 0, 0, 0, 0, 0, 0, 0, 1.77235, 0.0117991, -0.225823, -0.316418, 0.999534, -0.0072796, -0.00578712, -0.0290724, -0.00267461, 0.0186592, -0.0018744, 0.00382212, 0.0023991, -0.0161997, -0.0142174, -0.0119924, -0.0580702, 0, 0, 0, 0, 0, 0, 0, 0, 0, 0, 0, 0, 0, 0, 0, 0, 0, 0, 0, 0, 0, 0, 0, 0, 0, 0, 0, 0, 0, 0, 0, 0, 0, 0, 0, 0, 0, 0, 0, 0, 0, 0, 0, 0, 0, 0, 0, 0, 0, 0, 0, 0, 0, 0, 0, 0, 0, 0, 0, 0, 0, 0, 0, 0, 0, 0, 0, 0, 0, 0, 0, 
[2024-06-21 10:38:09.076433] [0x0000007fa97d99a0] [LogDataTag] [0x000021f9] [773] 1718980687273216, 1.80283, 0, 0, 0, 0, 0, 0, 0, 0, 0, 0, 0, 0, 1.78147, 0.0118033, -0.22589, -0.316425, 0.999531, -0.00729844, -0.00581848, -0.0291748, -0.00264521, 0.0187461, -0.00186058, -0.00328564, -0.00225337, -0.0275074, -0.014252, -0.0120577, -0.0582746, 0, 0, 0, 0, 0, 0, 0, 0, 0, 0, 0, 0, 0, 0, 0, 0, 0, 0, 0, 0, 0, 0, 0, 0, 0, 0, 0, 0, 0, 0, 0, 0, 0, 0, 0, 0, 0, 0, 0, 0, 0, 0, 0, 0, 0, 0, 0, 0, 0, 0, 0, 0, 0, 0, 0, 0, 0, 0, 0, 0, 0, 0, 0, 0, 0, 0, 0, 0, 0, 0, 0, 
[2024-06-21 10:38:09.086439] [0x0000007fa97d99a0] [LogDataTag] [0x000021f9] [778] 1718980687273216, 1.81282, 0, 0, 0, 0, 0, 0, 0, 0, 0, 0, 0, 0, 1.79049, 0.0118077, -0.225957, -0.316433, 0.99953, -0.00731224, -0.0058306, -0.0292083, -0.00276281, 0.0189559, -0.00185965, -0.00490562, -0.00686777, -0.00450194, -0.0142785, -0.0120832, -0.0583411, 0, 0, 0, 0, 0, 0, 0, 0, 0, 0, 0, 0, 0, 0, 0, 0, 0, 0, 0, 0, 0, 0, 0, 0, 0, 0, 0, 0, 0, 0, 0, 0, 0, 0, 0, 0, 0, 0, 0, 0, 0, 0, 0, 0, 0, 0, 0, 0, 0, 0, 0, 0, 0, 0, 0, 0, 0, 0, 0, 0, 0, 0, 0, 0, 0, 0, 0, 0, 0, 0, 0, 
[2024-06-21 10:38:09.096508] [0x0000007f9bffe9a0] [LogDataTag] [0x000021f9] [782] 1718980687273216, 1.82287, 0, 0, 0, 0, 0, 0, 0, 0, 0, 0, 0, 0, 1.8084, 0.0118146, -0.226064, -0.316452, 0.999531, -0.00729699, -0.00584527, -0.0291485, -0.00292503, 0.0196027, -0.00160318, 0.00660082, 0.00446623, 0.0147953, -0.0142479, -0.0121108, -0.0582215, 0, 0, 0, 0, 0, 0, 0, 0, 0, 0, 0, 0, 0, 0, 0, 0, 0, 0, 0, 0, 0, 0, 0, 0, 0, 0, 0, 0, 0, 0, 0, 0, 0, 0, 0, 0, 0, 0, 0, 0, 0, 0, 0, 0, 0, 0, 0, 0, 0, 0, 0, 0, 0, 0, 0, 0, 0, 0, 0, 0, 0, 0, 0, 0, 0, 0, 0, 0, 0, 0, 0, 
[2024-06-21 10:38:09.106507] [0x0000007faff34010] [LogDataTag] [0x000021f9] [786] 1718980687273216, 1.83287, 0, 0, 0, 0, 0, 0, 0, 0, 0, 0, 0, 0, 1.81727, 0.0118155, -0.226112, -0.316457, 0.999533, -0.00729673, -0.00583266, -0.029082, -0.00298249, 0.0189777, -0.00112477, 0.0010198, 0.00468543, 0.0148499, -0.0142489, -0.0120846, -0.0580887, 0, 0, 0, 0, 0, 0, 0, 0, 0, 0, 0, 0, 0, 0, 0, 0, 0, 0, 0, 0, 0, 0, 0, 0, 0, 0, 0, 0, 0, 0, 0, 0, 0, 0, 0, 0, 0, 0, 0, 0, 0, 0, 0, 0, 0, 0, 0, 0, 0, 0, 0, 0, 0, 0, 0, 0, 0, 0, 0, 0, 0, 0, 0, 0, 0, 0, 0, 0, 0, 0, 0, 
[2024-06-21 10:38:09.116582] [0x0000007fa8fd89a0] [LogDataTag] [0x000021f9] [791] 1718980687273216, 1.84286, 0, 0, 0, 0, 0, 0, 0, 0, 0, 0, 0, 0, 1.8263, 0.0118146, -0.226155, -0.31646, 0.999534, -0.00730914, -0.00584084, -0.0290482, -0.00299331, 0.0185871, -0.000890279, -0.000566491, -0.00530738, 0.00602289, -0.0142737, -0.0121012, -0.0580207, 0, 0, 0, 0, 0, 0, 0, 0, 0, 0, 0, 0, 0, 0, 0, 0, 0, 0, 0, 0, 0, 0, 0, 0, 0, 0, 0, 0, 0, 0, 0, 0, 0, 0, 0, 0, 0, 0, 0, 0, 0, 0, 0, 0, 0, 0, 0, 0, 0, 0, 0, 0, 0, 0, 0, 0, 0, 0, 0, 0, 0, 0, 0, 0, 0, 0, 0, 0, 0, 0, 0, 
[2024-06-21 10:38:09.126631] [0x0000007fa97d99a0] [LogDataTag] [0x000021f9] [796] 1718980687273216, 1.85308, 0, 0, 0, 0, 0, 0, 0, 0, 0, 0, 0, 0, 1.83542, 0.0118145, -0.226204, -0.316462, 0.999534, -0.00731108, -0.00585036, -0.0290434, -0.00296822, 0.0178174, -0.000945907, -1.13631e-05, -0.00765712, -0.00466653, -0.014277, -0.0121203, -0.0580111, 0, 0, 0, 0, 0, 0, 0, 0, 0, 0, 0, 0, 0, 0, 0, 0, 0, 0, 0, 0, 0, 0, 0, 0, 0, 0, 0, 0, 0, 0, 0, 0, 0, 0, 0, 0, 0, 0, 0, 0, 0, 0, 0, 0, 0, 0, 0, 0, 0, 0, 0, 0, 0, 0, 0, 0, 0, 0, 0, 0, 0, 0, 0, 0, 0, 0, 0, 0, 0, 0, 0, 
[2024-06-21 10:38:09.136557] [0x0000007f9bffe9a0] [LogDataTag] [0x000021f9] [800] 1718980687273216, 1.86286, 0, 0, 0, 0, 0, 0, 0, 0, 0, 0, 0, 0, 1.84447, 0.0118156, -0.22626, -0.316465, 0.999532, -0.00733402, -0.00586789, -0.0291149, -0.00293092, 0.0176998, -0.00130123, -0.00166554, -0.00568564, -0.0125884, -0.014321, -0.0121577, -0.0581535, 0, 0, 0, 0, 0, 0, 0, 0, 0, 0, 0, 0, 0, 0, 0, 0, 0, 0, 0, 0, 0, 0, 0, 0, 0, 0, 0, 0, 0, 0, 0, 0, 0, 0, 0, 0, 0, 0, 0, 0, 0, 0, 0, 0, 0, 0, 0, 0, 0, 0, 0, 0, 0, 0, 0, 0, 0, 0, 0, 0, 0, 0, 0, 0, 0, 0, 0, 0, 0, 0, 0, 
[2024-06-21 10:38:09.146470] [0x0000007fa8fd89a0] [LogDataTag] [0x000021f9] [805] 1718980687273216, 1.87288, 0, 0, 0, 0, 0, 0, 0, 0, 0, 0, 0, 0, 1.85346, 0.011817, -0.226314, -0.316472, 0.999531, -0.00734983, -0.00586646, -0.0291458, -0.00292062, 0.0180618, -0.00163837, -0.00179102, -0.0010069, -0.00275589, -0.0143523, -0.0121561, -0.0582152, 0, 0, 0, 0, 0, 0, 0, 0, 0, 0, 0, 0, 0, 0, 0, 0, 0, 0, 0, 0, 0, 0, 0, 0, 0, 0, 0, 0, 0, 0, 0, 0, 0, 0, 0, 0, 0, 0, 0, 0, 0, 0, 0, 0, 0, 0, 0, 0, 0, 0, 0, 0, 0, 0, 0, 0, 0, 0, 0, 0, 0, 0, 0, 0, 0, 0, 0, 0, 0, 0, 0, 
[2024-06-21 10:38:09.156449] [0x0000007faff34010] [LogDataTag] [0x000021f9] [809] 1718980687273216, 1.88283, 0, 0, 0, 0, 0, 0, 0, 0, 0, 0, 0, 0, 1.86241, 0.0118187, -0.226367, -0.316482, 0.999529, -0.00736066, -0.00585526, -0.0291955, -0.00284218, 0.0181949, -0.00183248, -0.000644446, 0.00340877, -0.0125546, -0.014374, -0.0121351, -0.0583147, 0, 0, 0, 0, 0, 0, 0, 0, 0, 0, 0, 0, 0, 0, 0, 0, 0, 0, 0, 0, 0, 0, 0, 0, 0, 0, 0, 0, 0, 0, 0, 0, 0, 0, 0, 0, 0, 0, 0, 0, 0, 0, 0, 0, 0, 0, 0, 0, 0, 0, 0, 0, 0, 0, 0, 0, 0, 0, 0, 0, 0, 0, 0, 0, 0, 0, 0, 0, 0, 0, 0, 
[2024-06-21 10:38:09.166459] [0x0000007fa97d99a0] [LogDataTag] [0x000021f9] [813] 1718980687273216, 1.89285, 0, 0, 0, 0, 0, 0, 0, 0, 0, 0, 0, 0, 1.8714, 0.011821, -0.226417, -0.316493, 0.99953, -0.00738243, -0.00586063, -0.0291625, -0.00285084, 0.0186237, -0.00196218, -0.00167283, -0.00132603, 0.0111698, -0.0144177, -0.0121466, -0.0582482, 0, 0, 0, 0, 0, 0, 0, 0, 0, 0, 0, 0, 0, 0, 0, 0, 0, 0, 0, 0, 0, 0, 0, 0, 0, 0, 0, 0, 0, 0, 0, 0, 0, 0, 0, 0, 0, 0, 0, 0, 0, 0, 0, 0, 0, 0, 0, 0, 0, 0, 0, 0, 0, 0, 0, 0, 0, 0, 0, 0, 0, 0, 0, 0, 0, 0, 0, 0, 0, 0, 0, 
[2024-06-21 10:38:09.176446] [0x0000007f9bffe9a0] [LogDataTag] [0x000021f9] [818] 1718980687273216, 1.90283, 0, 0, 0, 0, 0, 0, 0, 0, 0, 0, 0, 0, 1.8804, 0.0118233, -0.226462, -0.316505, 0.999532, -0.00737511, -0.00585098, -0.0291104, -0.00276447, 0.0187429, -0.00220191, 0.00455147, 0.000781689, 0.00842237, -0.0144042, -0.0121262, -0.0581442, 0, 0, 0, 0, 0, 0, 0, 0, 0, 0, 0, 0, 0, 0, 0, 0, 0, 0, 0, 0, 0, 0, 0, 0, 0, 0, 0, 0, 0, 0, 0, 0, 0, 0, 0, 0, 0, 0, 0, 0, 0, 0, 0, 0, 0, 0, 0, 0, 0, 0, 0, 0, 0, 0, 0, 0, 0, 0, 0, 0, 0, 0, 0, 0, 0, 0, 0, 0, 0, 0, 0, 
[2024-06-21 10:38:09.186733] [0x0000007fa8fd89a0] [LogDataTag] [0x000021f9] [822] 1718980687273216, 1.91316, 0, 0, 0, 0, 0, 0, 0, 0, 0, 0, 0, 0, 1.89847, 0.0118285, -0.226565, -0.316531, 0.999533, -0.00738962, -0.00583807, -0.0290663, -0.00287722, 0.0156948, -0.00195775, 0.00484614, -0.00420736, -0.0160352, -0.0144345, -0.0121006, -0.0580561, 0, 0, 0, 0, 0, 0, 0, 0, 0, 0, 0, 0, 0, 0, 0, 0, 0, 0, 0, 0, 0, 0, 0, 0, 0, 0, 0, 0, 0, 0, 0, 0, 0, 0, 0, 0, 0, 0, 0, 0, 0, 0, 0, 0, 0, 0, 0, 0, 0, 0, 0, 0, 0, 0, 0, 0, 0, 0, 0, 0, 0, 0, 0, 0, 0, 0, 0, 0, 0, 0, 0, 
[2024-06-21 10:38:09.196440] [0x0000007faff34010] [LogDataTag] [0x000021f9] [827] 1718980687273216, 1.92284, 0, 0, 0, 0, 0, 0, 0, 0, 0, 0, 0, 0, 1.9075, 0.0118306, -0.226633, -0.316542, 0.999529, -0.0074174, -0.00585141, -0.0292169, -0.00272602, 0.0164457, -0.00176565, -0.00646576, -0.00559253, -0.0287551, -0.0144875, -0.012131, -0.0583568, 0, 0, 0, 0, 0, 0, 0, 0, 0, 0, 0, 0, 0, 0, 0, 0, 0, 0, 0, 0, 0, 0, 0, 0, 0, 0, 0, 0, 0, 0, 0, 0, 0, 0, 0, 0, 0, 0, 0, 0, 0, 0, 0, 0, 0, 0, 0, 0, 0, 0, 0, 0, 0, 0, 0, 0, 0, 0, 0, 0, 0, 0, 0, 0, 0, 0, 0, 0, 0, 0, 0, 
[2024-06-21 10:38:09.206510] [0x0000007fa97d99a0] [LogDataTag] [0x000021f9] [831] 1718980687273216, 1.93296, 0, 0, 0, 0, 0, 0, 0, 0, 0, 0, 0, 0, 1.91633, 0.011827, -0.226671, -0.31655, 0.999529, -0.00741319, -0.00585254, -0.0292001, -0.00376023, 0.0185852, -0.00186977, 0.012365, 0.00549439, 0.00229861, -0.0144792, -0.0121328, -0.0583232, 0, 0, 0, 0, 0, 0, 0, 0, 0, 0, 0, 0, 0, 0, 0, 0, 0, 0, 0, 0, 0, 0, 0, 0, 0, 0, 0, 0, 0, 0, 0, 0, 0, 0, 0, 0, 0, 0, 0, 0, 0, 0, 0, 0, 0, 0, 0, 0, 0, 0, 0, 0, 0, 0, 0, 0, 0, 0, 0, 0, 0, 0, 0, 0, 0, 0, 0, 0, 0, 0, 0, 
[2024-06-21 10:38:09.216474] [0x0000007f9bffe9a0] [LogDataTag] [0x000021f9] [835] 1718980687273216, 1.94285, 0, 0, 0, 0, 0, 0, 0, 0, 0, 0, 0, 0, 1.92539, 0.0118274, -0.226699, -0.316565, 0.999532, -0.00741367, -0.00584883, -0.0291092, -0.00249697, 0.0195489, -0.00319539, -0.00184241, 0.00388548, 0.0197373, -0.0144814, -0.0121241, -0.0581414, 0, 0, 0, 0, 0, 0, 0, 0, 0, 0, 0, 0, 0, 0, 0, 0, 0, 0, 0, 0, 0, 0, 0, 0, 0, 0, 0, 0, 0, 0, 0, 0, 0, 0, 0, 0, 0, 0, 0, 0, 0, 0, 0, 0, 0, 0, 0, 0, 0, 0, 0, 0, 0, 0, 0, 0, 0, 0, 0, 0, 0, 0, 0, 0, 0, 0, 0, 0, 0, 0, 0, 
[2024-06-21 10:38:09.226795] [0x0000007fa8fd89a0] [LogDataTag] [0x000021f9] [840] 1718980687273216, 1.95319, 0, 0, 0, 0, 0, 0, 0, 0, 0, 0, 0, 0, 1.93428, 0.0118303, -0.226719, -0.316585, 0.999534, -0.00741425, -0.00585201, -0.029017, -0.00270879, 0.0181885, -0.00256421, 0.00570904, -0.00198245, 0.018032, -0.0144836, -0.0121291, -0.0579569, 0, 0, 0, 0, 0, 0, 0, 0, 0, 0, 0, 0, 0, 0, 0, 0, 0, 0, 0, 0, 0, 0, 0, 0, 0, 0, 0, 0, 0, 0, 0, 0, 0, 0, 0, 0, 0, 0, 0, 0, 0, 0, 0, 0, 0, 0, 0, 0, 0, 0, 0, 0, 0, 0, 0, 0, 0, 0, 0, 0, 0, 0, 0, 0, 0, 0, 0, 0, 0, 0, 0, 
[2024-06-21 10:38:09.236472] [0x0000007faff34010] [LogDataTag] [0x000021f9] [844] 1718980687273216, 1.96284, 0, 0, 0, 0, 0, 0, 0, 0, 0, 0, 0, 0, 1.94341, 0.0118286, -0.22675, -0.316602, 0.999535, -0.00740533, -0.00581333, -0.0290205, -0.00319488, 0.0174573, -0.00232209, 0.00411271, 0.0077282, -0.00277741, -0.0144679, -0.0120513, -0.0579645, 0, 0, 0, 0, 0, 0, 0, 0, 0, 0, 0, 0, 0, 0, 0, 0, 0, 0, 0, 0, 0, 0, 0, 0, 0, 0, 0, 0, 0, 0, 0, 0, 0, 0, 0, 0, 0, 0, 0, 0, 0, 0, 0, 0, 0, 0, 0, 0, 0, 0, 0, 0, 0, 0, 0, 0, 0, 0, 0, 0, 0, 0, 0, 0, 0, 0, 0, 0, 0, 0, 0, 
[2024-06-21 10:38:09.246479] [0x0000007f9bffe9a0] [LogDataTag] [0x000021f9] [848] 1718980687273216, 1.97289, 0, 0, 0, 0, 0, 0, 0, 0, 0, 0, 0, 0, 1.95231, 0.0118223, -0.22678, -0.316616, 0.999533, -0.0074401, -0.00580094, -0.0290729, -0.00354143, 0.0165923, -0.00196572, -0.00104934, 0.00874934, -0.0119866, -0.0145375, -0.0120294, -0.0580691, 0, 0, 0, 0, 0, 0, 0, 0, 0, 0, 0, 0, 0, 0, 0, 0, 0, 0, 0, 0, 0, 0, 0, 0, 0, 0, 0, 0, 0, 0, 0, 0, 0, 0, 0, 0, 0, 0, 0, 0, 0, 0, 0, 0, 0, 0, 0, 0, 0, 0, 0, 0, 0, 0, 0, 0, 0, 0, 0, 0, 0, 0, 0, 0, 0, 0, 0, 0, 0, 0, 0, 
[2024-06-21 10:38:09.256485] [0x0000007fa97d99a0] [LogDataTag] [0x000021f9] [853] 1718980687273216, 1.98294, 0, 0, 0, 0, 0, 0, 0, 0, 0, 0, 0, 0, 1.96152, 0.0118164, -0.226816, -0.316624, 0.99953, -0.00743793, -0.00582474, -0.0291594, -0.00322875, 0.0169606, -0.00156906, 0.00216866, -0.00623939, -0.0195486, -0.0145307, -0.0120781, -0.058242, 0, 0, 0, 0, 0, 0, 0, 0, 0, 0, 0, 0, 0, 0, 0, 0, 0, 0, 0, 0, 0, 0, 0, 0, 0, 0, 0, 0, 0, 0, 0, 0, 0, 0, 0, 0, 0, 0, 0, 0, 0, 0, 0, 0, 0, 0, 0, 0, 0, 0, 0, 0, 0, 0, 0, 0, 0, 0, 0, 0, 0, 0, 0, 0, 0, 0, 0, 0, 0, 0, 0, 
[2024-06-21 10:38:09.266450] [0x0000007fa8fd89a0] [LogDataTag] [0x000021f9] [857] 1718980687273216, 1.99288, 0, 0, 0, 0, 0, 0, 0, 0, 0, 0, 0, 0, 1.97046, 0.0118144, -0.226845, -0.316631, 0.999528, -0.00744868, -0.00585814, -0.0292192, -0.00279428, 0.0180595, -0.00161789, -0.00126773, -0.0101335, -0.0119944, -0.0145496, -0.0121463, -0.0583609, 0, 0, 0, 0, 0, 0, 0, 0, 0, 0, 0, 0, 0, 0, 0, 0, 0, 0, 0, 0, 0, 0, 0, 0, 0, 0, 0, 0, 0, 0, 0, 0, 0, 0, 0, 0, 0, 0, 0, 0, 0, 0, 0, 0, 0, 0, 0, 0, 0, 0, 0, 0, 0, 0, 0, 0, 0, 0, 0, 0, 0, 0, 0, 0, 0, 0, 0, 0, 0, 0, 0, 
[2024-06-21 10:38:09.276526] [0x0000007faff34010] [LogDataTag] [0x000021f9] [861] 1718980687273216, 2.00287, 0, 0, 0, 0, 0, 0, 0, 0, 0, 0, 0, 0, 1.9808, 0.0118126, -0.226854, -0.31664, 0.999529, -0.0074303, -0.00586521, -0.0292003, -0.00292345, 0.0197192, -0.00204485, 0.00801037, 0.00142625, 0.0116755, -0.0145126, -0.0121591, -0.0583233, 0, 0, 0, 0, 0, 0, 0, 0, 0, 0, 0, 0, 0, 0, 0, 0, 0, 0, 0, 0, 0, 0, 0, 0, 0, 0, 0, 0, 0, 0, 0, 0, 0, 0, 0, 0, 0, 0, 0, 0, 0, 0, 0, 0, 0, 0, 0, 0, 0, 0, 0, 0, 0, 0, 0, 0, 0, 0, 0, 0, 0, 0, 0, 0, 0, 0, 0, 0, 0, 0, 0, 
[2024-06-21 10:38:09.286475] [0x0000007f9bffe9a0] [LogDataTag] [0x000021f9] [866] 1718980687273216, 2.01284, 0, 0, 0, 0, 0, 0, 0, 0, 0, 0, 0, 0, 1.99888, 0.0118058, -0.226837, -0.316663, 0.999533, -0.00744387, -0.00582621, -0.0290527, -0.00291864, 0.0196493, -0.00187528, 0.00334855, -0.000908953, 0.0209421, -0.0145438, -0.0120798, -0.0580283, 0, 0, 0, 0, 0, 0, 0, 0, 0, 0, 0, 0, 0, 0, 0, 0, 0, 0, 0, 0, 0, 0, 0, 0, 0, 0, 0, 0, 0, 0, 0, 0, 0, 0, 0, 0, 0, 0, 0, 0, 0, 0, 0, 0, 0, 0, 0, 0, 0, 0, 0, 0, 0, 0, 0, 0, 0, 0, 0, 0, 0, 0, 0, 0, 0, 0, 0, 0, 0, 0, 0, 
[2024-06-21 10:38:09.296477] [0x0000007fa97d99a0] [LogDataTag] [0x000021f9] [870] 1718980687273216, 2.02284, 0, 0, 0, 0, 0, 0, 0, 0, 0, 0, 0, 0, 2.00779, 0.0118025, -0.226832, -0.316673, 0.999534, -0.00744545, -0.00583723, -0.0290186, -0.00281302, 0.0185799, -0.0019078, -0.00259688, -0.00128006, 0.0037772, -0.0145468, -0.0121014, -0.05796, 0, 0, 0, 0, 0, 0, 0, 0, 0, 0, 0, 0, 0, 0, 0, 0, 0, 0, 0, 0, 0, 0, 0, 0, 0, 0, 0, 0, 0, 0, 0, 0, 0, 0, 0, 0, 0, 0, 0, 0, 0, 0, 0, 0, 0, 0, 0, 0, 0, 0, 0, 0, 0, 0, 0, 0, 0, 0, 0, 0, 0, 0, 0, 0, 0, 0, 0, 0, 0, 0, 0, 
[2024-06-21 10:38:09.306430] [0x0000007fa8fd89a0] [LogDataTag] [0x000021f9] [875] 1718980687273216, 2.03282, 0, 0, 0, 0, 0, 0, 0, 0, 0, 0, 0, 0, 2.01679, 0.0117987, -0.226829, -0.316685, 0.999534, -0.00745316, -0.00584104, -0.029034, -0.00285165, 0.0175617, -0.00231899, 0.00443237, 0.00734381, -0.00439176, -0.0145618, -0.0121097, -0.0579905, 0, 0, 0, 0, 0, 0, 0, 0, 0, 0, 0, 0, 0, 0, 0, 0, 0, 0, 0, 0, 0, 0, 0, 0, 0, 0, 0, 0, 0, 0, 0, 0, 0, 0, 0, 0, 0, 0, 0, 0, 0, 0, 0, 0, 0, 0, 0, 0, 0, 0, 0, 0, 0, 0, 0, 0, 0, 0, 0, 0, 0, 0, 0, 0, 0, 0, 0, 0, 0, 0, 0, 
[2024-06-21 10:38:09.316451] [0x0000007faff34010] [LogDataTag] [0x000021f9] [879] 1718980687273216, 2.04283, 0, 0, 0, 0, 0, 0, 0, 0, 0, 0, 0, 0, 2.02593, 0.011795, -0.22684, -0.316698, 0.999532, -0.00746619, -0.00588245, -0.0290862, -0.00306967, 0.0172244, -0.00235476, -0.00483979, -0.00816536, -0.0116342, -0.0145848, -0.012194, -0.0580944, 0, 0, 0, 0, 0, 0, 0, 0, 0, 0, 0, 0, 0, 0, 0, 0, 0, 0, 0, 0, 0, 0, 0, 0, 0, 0, 0, 0, 0, 0, 0, 0, 0, 0, 0, 0, 0, 0, 0, 0, 0, 0, 0, 0, 0, 0, 0, 0, 0, 0, 0, 0, 0, 0, 0, 0, 0, 0, 0, 0, 0, 0, 0, 0, 0, 0, 0, 0, 0, 0, 0, 
[2024-06-21 10:38:09.326449] [0x0000007f9bffe9a0] [LogDataTag] [0x000021f9] [883] 1718980687273216, 2.05285, 0, 0, 0, 0, 0, 0, 0, 0, 0, 0, 0, 0, 2.03491, 0.011791, -0.226855, -0.31671, 0.999529, -0.00746081, -0.00589066, -0.0291699, -0.00317312, 0.0178764, -0.00237964, 0.0038038, -0.00284442, -0.0141638, -0.0145725, -0.0122113, -0.0582617, 0, 0, 0, 0, 0, 0, 0, 0, 0, 0, 0, 0, 0, 0, 0, 0, 0, 0, 0, 0, 0, 0, 0, 0, 0, 0, 0, 0, 0, 0, 0, 0, 0, 0, 0, 0, 0, 0, 0, 0, 0, 0, 0, 0, 0, 0, 0, 0, 0, 0, 0, 0, 0, 0, 0, 0, 0, 0, 0, 0, 0, 0, 0, 0, 0, 0, 0, 0, 0, 0, 0, 
[2024-06-21 10:38:09.336495] [0x0000007fa97d99a0] [LogDataTag] [0x000021f9] [888] 1718980687273216, 2.06284, 0, 0, 0, 0, 0, 0, 0, 0, 0, 0, 0, 0, 2.04392, 0.0117889, -0.226879, -0.316724, 0.999528, -0.00747135, -0.0058949, -0.029221, -0.00321769, 0.0187143, -0.0027371, 0.00223479, 0.00218902, -0.0157137, -0.0145927, -0.0122212, -0.0583637, 0, 0, 0, 0, 0, 0, 0, 0, 0, 0, 0, 0, 0, 0, 0, 0, 0, 0, 0, 0, 0, 0, 0, 0, 0, 0, 0, 0, 0, 0, 0, 0, 0, 0, 0, 0, 0, 0, 0, 0, 0, 0, 0, 0, 0, 0, 0, 0, 0, 0, 0, 0, 0, 0, 0, 0, 0, 0, 0, 0, 0, 0, 0, 0, 0, 0, 0, 0, 0, 0, 0, 
[2024-06-21 10:38:09.346444] [0x0000007fa8fd89a0] [LogDataTag] [0x000021f9] [892] 1718980687273216, 2.07284, 0, 0, 0, 0, 0, 0, 0, 0, 0, 0, 0, 0, 2.05287, 0.0117856, -0.226883, -0.316738, 0.999529, -0.0074914, -0.00587819, -0.0291859, -0.00312487, 0.0196409, -0.00269086, -0.00481026, -0.00221871, 0.0132287, -0.0146342, -0.0121884, -0.0582935, 0, 0, 0, 0, 0, 0, 0, 0, 0, 0, 0, 0, 0, 0, 0, 0, 0, 0, 0, 0, 0, 0, 0, 0, 0, 0, 0, 0, 0, 0, 0, 0, 0, 0, 0, 0, 0, 0, 0, 0, 0, 0, 0, 0, 0, 0, 0, 0, 0, 0, 0, 0, 0, 0, 0, 0, 0, 0, 0, 0, 0, 0, 0, 0, 0, 0, 0, 0, 0, 0, 0, 
[2024-06-21 10:38:09.356437] [0x0000007faff34010] [LogDataTag] [0x000021f9] [896] 1718980687273216, 2.08283, 0, 0, 0, 0, 0, 0, 0, 0, 0, 0, 0, 0, 2.06195, 0.0117838, -0.226884, -0.316749, 0.99953, -0.0075024, -0.00587486, -0.029126, -0.00310363, 0.0199399, -0.00204183, -0.00202901, -0.0038615, 0.0191582, -0.0146571, -0.0121815, -0.0581736, 0, 0, 0, 0, 0, 0, 0, 0, 0, 0, 0, 0, 0, 0, 0, 0, 0, 0, 0, 0, 0, 0, 0, 0, 0, 0, 0, 0, 0, 0, 0, 0, 0, 0, 0, 0, 0, 0, 0, 0, 0, 0, 0, 0, 0, 0, 0, 0, 0, 0, 0, 0, 0, 0, 0, 0, 0, 0, 0, 0, 0, 0, 0, 0, 0, 0, 0, 0, 0, 0, 0, 
[2024-06-21 10:38:09.366508] [0x0000007f9bffe9a0] [LogDataTag] [0x000021f9] [901] 1718980687273216, 2.09288, 0, 0, 0, 0, 0, 0, 0, 0, 0, 0, 0, 0, 2.07072, 0.0117798, -0.226875, -0.316757, 0.999532, -0.00749529, -0.00587728, -0.0290705, -0.00308344, 0.0196184, -0.00220028, 0.00461471, -0.0001483, 0.0126296, -0.0146435, -0.0121851, -0.0580627, 0, 0, 0, 0, 0, 0, 0, 0, 0, 0, 0, 0, 0, 0, 0, 0, 0, 0, 0, 0, 0, 0, 0, 0, 0, 0, 0, 0, 0, 0, 0, 0, 0, 0, 0, 0, 0, 0, 0, 0, 0, 0, 0, 0, 0, 0, 0, 0, 0, 0, 0, 0, 0, 0, 0, 0, 0, 0, 0, 0, 0, 0, 0, 0, 0, 0, 0, 0, 0, 0, 0, 
[2024-06-21 10:38:09.376512] [0x0000007fa97d99a0] [LogDataTag] [0x000021f9] [905] 1718980687273216, 2.10288, 0, 0, 0, 0, 0, 0, 0, 0, 0, 0, 0, 0, 2.08868, 0.0117715, -0.226875, -0.316774, 0.999531, -0.00751525, -0.00586144, -0.0290993, -0.0032147, 0.0179717, -0.00205374, -0.00242292, -0.00127211, -0.0104991, -0.0146839, -0.0121551, -0.0581202, 0, 0, 0, 0, 0, 0, 0, 0, 0, 0, 0, 0, 0, 0, 0, 0, 0, 0, 0, 0, 0, 0, 0, 0, 0, 0, 0, 0, 0, 0, 0, 0, 0, 0, 0, 0, 0, 0, 0, 0, 0, 0, 0, 0, 0, 0, 0, 0, 0, 0, 0, 0, 0, 0, 0, 0, 0, 0, 0, 0, 0, 0, 0, 0, 0, 0, 0, 0, 0, 0, 0, 
[2024-06-21 10:38:09.386859] [0x0000007fa8fd89a0] [LogDataTag] [0x000021f9] [910] 1718980687273216, 2.11288, 0, 0, 0, 0, 0, 0, 0, 0, 0, 0, 0, 0, 2.09786, 0.0117678, -0.226885, -0.316782, 0.999529, -0.00752681, -0.00586646, -0.029164, -0.00314877, 0.0174284, -0.00226212, -0.00247976, -0.0054421, -0.00897623, -0.014706, -0.0121667, -0.0582494, 0, 0, 0, 0, 0, 0, 0, 0, 0, 0, 0, 0, 0, 0, 0, 0, 0, 0, 0, 0, 0, 0, 0, 0, 0, 0, 0, 0, 0, 0, 0, 0, 0, 0, 0, 0, 0, 0, 0, 0, 0, 0, 0, 0, 0, 0, 0, 0, 0, 0, 0, 0, 0, 0, 0, 0, 0, 0, 0, 0, 0, 0, 0, 0, 0, 0, 0, 0, 0, 0, 0, 
[2024-06-21 10:38:09.396525] [0x0000007faff34010] [LogDataTag] [0x000021f9] [914] 1718980687273216, 2.12289, 0, 0, 0, 0, 0, 0, 0, 0, 0, 0, 0, 0, 2.10676, 0.0117641, -0.226886, -0.316792, 0.999527, -0.00753137, -0.00587632, -0.029235, -0.00286568, 0.0180189, -0.00227524, 0.00150991, -0.00316008, -0.0115934, -0.0147136, -0.0121877, -0.0583914, 0, 0, 0, 0, 0, 0, 0, 0, 0, 0, 0, 0, 0, 0, 0, 0, 0, 0, 0, 0, 0, 0, 0, 0, 0, 0, 0, 0, 0, 0, 0, 0, 0, 0, 0, 0, 0, 0, 0, 0, 0, 0, 0, 0, 0, 0, 0, 0, 0, 0, 0, 0, 0, 0, 0, 0, 0, 0, 0, 0, 0, 0, 0, 0, 0, 0, 0, 0, 0, 0, 0, 
[2024-06-21 10:38:09.406483] [0x0000007f9bffe9a0] [LogDataTag] [0x000021f9] [918] 1718980687273216, 2.13286, 0, 0, 0, 0, 0, 0, 0, 0, 0, 0, 0, 0, 2.11589, 0.0117644, -0.226889, -0.316801, 0.999527, -0.00752487, -0.0058856, -0.0292401, -0.0026474, 0.0183367, -0.00270622, 0.004945, -0.000273386, 0.0013554, -0.0147001, -0.012206, -0.0584015, 0, 0, 0, 0, 0, 0, 0, 0, 0, 0, 0, 0, 0, 0, 0, 0, 0, 0, 0, 0, 0, 0, 0, 0, 0, 0, 0, 0, 0, 0, 0, 0, 0, 0, 0, 0, 0, 0, 0, 0, 0, 0, 0, 0, 0, 0, 0, 0, 0, 0, 0, 0, 0, 0, 0, 0, 0, 0, 0, 0, 0, 0, 0, 0, 0, 0, 0, 0, 0, 0, 0, 
[2024-06-21 10:38:09.416354] [0x0000007faff34010] [LogDataTag] [0x000021f9] [922] 1718980687273216, 2.14275, 0, 0, 0, 0, 0, 0, 0, 0, 0, 0, 0, 0, 2.13368, 0.0117677, -0.226887, -0.316829, 0.99953, -0.00754988, -0.00583974, -0.0291476, -0.00257012, 0.0186433, -0.00325924, 0.00592554, 0.00352894, 0.0103576, -0.0147538, -0.0121144, -0.0582168, 0, 0, 0, 0, 0, 0, 0, 0, 0, 0, 0, 0, 0, 0, 0, 0, 0, 0, 0, 0, 0, 0, 0, 0, 0, 0, 0, 0, 0, 0, 0, 0, 0, 0, 0, 0, 0, 0, 0, 0, 0, 0, 0, 0, 0, 0, 0, 0, 0, 0, 0, 0, 0, 0, 0, 0, 0, 0, 0, 0, 0, 0, 0, 0, 0, 0, 0, 0, 0, 0, 0, 
[2024-06-21 10:38:09.426566] [0x0000007faff34010] [LogDataTag] [0x000021f9] [927] 1718980687273216, 2.15302, 0, 0, 0, 0, 0, 0, 0, 0, 0, 0, 0, 0, 2.13368, 0.0117677, -0.226887, -0.316829, 0.99953, -0.00754988, -0.00583974, -0.0291476, -0.00257012, 0.0186433, -0.00325924, 0.00592554, 0.00352894, 0.0103576, -0.0147538, -0.0121144, -0.0582168, 0, 0, 0, 0, 0, 0, 0, 0, 0, 0, 0, 0, 0, 0, 0, 0, 0, 0, 0, 0, 0, 0, 0, 0, 0, 0, 0, 0, 0, 0, 0, 0, 0, 0, 0, 0, 0, 0, 0, 0, 0, 0, 0, 0, 0, 0, 0, 0, 0, 0, 0, 0, 0, 0, 0, 0, 0, 0, 0, 0, 0, 0, 0, 0, 0, 0, 0, 0, 0, 0, 0, 
